encoding_list,recall_list,word,new_old,correct,critical_word,list_loop.thisRepN,list_loop.thisTrialN,list_loop.thisN,list_loop.thisIndex,encoding_loop.thisRepN,encoding_loop.thisTrialN,encoding_loop.thisN,encoding_loop.thisIndex,recognition_loop.thisRepN,recognition_loop.thisTrialN,recognition_loop.thisN,recognition_loop.thisIndex,thisRow.t,notes,Welcome.started,text_4.started,key_resp_2.started,Welcome.stopped,key_resp_2.keys,key_resp_2.rt,key_resp_2.duration,instructions.started,text_5.started,key_resp_3.started,instructions.stopped,key_resp_3.keys,key_resp_3.rt,key_resp_3.duration,blank.started,blank.stopped,encoding.started,text.started,text.stopped,encoding.stopped,delay.started,text_7.started,text_7.stopped,delay.stopped,ready.started,text_2.started,text_2.stopped,ready.stopped,recognition.started,text_3.started,key_resp.started,recognition.stopped,key_resp.keys,key_resp.corr,key_resp.rt,key_resp.duration,blankk.started,blankk.stopped,goodbye.started,text_6.started,text_6.stopped,goodbye.stopped,participant,session,date,expName,psychopyVersion,frameRate,expStart,
,,,,,,,,,,,,,,,,,,,,0.010437333025038242,0.018705333000980318,0.018705333000980318,1.508388499962166,space,1.464257999905385,None,,,,,,,,,,,,,,,,,,,,,,,,,,,,,,,,,,,,002,001,2023-10-05_13h02.56.991,DRM_HieuLe,2023.2.1,60.24528881480341,2023-10-05 13h03.04.727177 -0500,
,,,,,,,,,,,,,,,,,,,,,,,,,,,1.5084269579965621,1.520708249998279,1.520708249998279,3.1089377920143306,return,1.5714580409694463,None,,,,,,,,,,,,,,,,,,,,,,,,,,,,,002,001,2023-10-05_13h02.56.991,DRM_HieuLe,2023.2.1,60.24528881480341,2023-10-05 13h03.04.727177 -0500,
encoding_list1.xlsx,recall_list1.xlsx,temper,,,,0,0,0,0,0,0,0,1,,,,,3.1320846249582246,,,,,,,,,,,,,,,,3.1089659580029547,3.109239208046347,3.1243758749915287,4.124297625035979,5.124378249980509,5.108027082984336,5.1080476669594646,5.124378249980509,6.124400708009489,6.10854212497361,,,,,,,,,,,,,,,,,,,002,001,2023-10-05_13h02.56.991,DRM_HieuLe,2023.2.1,60.24528881480341,2023-10-05 13h03.04.727177 -0500,
encoding_list1.xlsx,recall_list1.xlsx,hate,,,,0,0,0,0,0,1,1,6,,,,,6.124400708009489,,,,,,,,,,,,,,,,,,6.108964500017464,6.124400708009489,7.124999416992068,7.1081511250231415,7.108167125028558,7.124999416992068,8.125170166953467,8.108088667038828,,,,,,,,,,,,,,,,,,,002,001,2023-10-05_13h02.56.991,DRM_HieuLe,2023.2.1,60.24528881480341,2023-10-05 13h03.04.727177 -0500,
encoding_list1.xlsx,recall_list1.xlsx,emotion,,,,0,0,0,0,0,2,2,5,,,,,8.125170166953467,,,,,,,,,,,,,,,,,,8.108496292028576,8.125170166953467,9.124531332985498,9.108063417021185,9.108082083053887,9.124531332985498,10.124993624980561,10.107861374970526,,,,,,,,,,,,,,,,,,,002,001,2023-10-05_13h02.56.991,DRM_HieuLe,2023.2.1,60.24528881480341,2023-10-05 13h03.04.727177 -0500,
encoding_list1.xlsx,recall_list1.xlsx,fear,,,,0,0,0,0,0,3,3,0,,,,,10.124993624980561,,,,,,,,,,,,,,,,,,10.108259667060338,10.124993624980561,11.124562666984275,11.108261874993332,11.108280666987412,11.124562666984275,12.124520750017837,12.108408999978565,,,,,,,,,,,,,,,,,,,002,001,2023-10-05_13h02.56.991,DRM_HieuLe,2023.2.1,60.24528881480341,2023-10-05 13h03.04.727177 -0500,
encoding_list1.xlsx,recall_list1.xlsx,hatred,,,,0,0,0,0,0,4,4,2,,,,,12.124520750017837,,,,,,,,,,,,,,,,,,12.108814875013195,12.124520750017837,13.124766499968246,13.108422375051305,13.108437958057038,13.124766499968246,14.124553916975856,14.108131124987267,,,,,,,,,,,,,,,,,,,002,001,2023-10-05_13h02.56.991,DRM_HieuLe,2023.2.1,60.24528881480341,2023-10-05 13h03.04.727177 -0500,
encoding_list1.xlsx,recall_list1.xlsx,fight,,,,0,0,0,0,0,5,5,9,,,,,14.124553916975856,,,,,,,,,,,,,,,,,,14.108542707981542,14.124553916975856,15.12479433300905,15.108313750009984,15.108332374948077,15.12479433300905,16.12435954203829,16.108581083011813,,,,,,,,,,,,,,,,,,,002,001,2023-10-05_13h02.56.991,DRM_HieuLe,2023.2.1,60.24528881480341,2023-10-05 13h03.04.727177 -0500,
encoding_list1.xlsx,recall_list1.xlsx,wrath,,,,0,0,0,0,0,6,6,8,,,,,16.12435954203829,,,,,,,,,,,,,,,,,,16.108986958046444,16.12435954203829,17.124947541975416,17.108580000000075,17.108598958002403,17.124947541975416,18.124705292051658,18.10853629198391,,,,,,,,,,,,,,,,,,,002,001,2023-10-05_13h02.56.991,DRM_HieuLe,2023.2.1,60.24528881480341,2023-10-05 13h03.04.727177 -0500,
encoding_list1.xlsx,recall_list1.xlsx,fury,,,,0,0,0,0,0,7,7,3,,,,,18.124705292051658,,,,,,,,,,,,,,,,,,18.108943208004348,18.124705292051658,19.12480870797299,19.108485167031176,19.10850420803763,19.12480870797299,20.125049042049795,20.108299916959368,,,,,,,,,,,,,,,,,,,002,001,2023-10-05_13h02.56.991,DRM_HieuLe,2023.2.1,60.24528881480341,2023-10-05 13h03.04.727177 -0500,
encoding_list1.xlsx,recall_list1.xlsx,enrage,,,,0,0,0,0,0,8,8,4,,,,,20.125049042049795,,,,,,,,,,,,,,,,,,20.108709458028898,20.125049042049795,21.124841375043616,21.10853041696828,21.10854616703,21.124841375043616,22.125194916967303,22.10879945801571,,,,,,,,,,,,,,,,,,,002,001,2023-10-05_13h02.56.991,DRM_HieuLe,2023.2.1,60.24528881480341,2023-10-05 13h03.04.727177 -0500,
encoding_list1.xlsx,recall_list1.xlsx,mean,,,,0,0,0,0,0,9,9,7,,,,,22.125194916967303,,,,,,,,,,,,,,,,,,22.10920070798602,22.125194916967303,23.12451970798429,23.1087500420399,23.108769500046037,23.12451970798429,24.125077500008047,24.10854470799677,,,,,,,,,,,,,,,,,,,002,001,2023-10-05_13h02.56.991,DRM_HieuLe,2023.2.1,60.24528881480341,2023-10-05 13h03.04.727177 -0500,
encoding_list1.xlsx,recall_list1.xlsx,filter,new,j,0,0,0,0,0,,,,,0,0,0,16,27.13234949996695,,,,,,,,,,,,,,,,,,,,,,,,,,24.108683124999516,24.125077500008047,27.13234949996695,27.108748708036728,27.123318208032288,27.13234949996695,27.13234949996695,28.159753417014144,j,0,1.0107867500046268,None,,,,,,,002,001,2023-10-05_13h02.56.991,DRM_HieuLe,2023.2.1,60.24528881480341,2023-10-05 13h03.04.727177 -0500,
encoding_list1.xlsx,recall_list1.xlsx,fury,old,f,0,0,0,0,0,,,,,0,1,1,3,28.17439804202877,,,,,,,,,,,,,,,,,,,,,,,,,,,,,,28.160772082977928,28.17439804202877,28.17439804202877,28.992458750028163,f,0,0.8073929999954998,None,,,,,,,002,001,2023-10-05_13h02.56.991,DRM_HieuLe,2023.2.1,60.24528881480341,2023-10-05 13h03.04.727177 -0500,
encoding_list1.xlsx,recall_list1.xlsx,lunch,new,j,0,0,0,0,0,,,,,0,2,2,17,29.007791207986884,,,,,,,,,,,,,,,,,,,,,,,,,,,,,,28.993132082978263,29.007791207986884,29.007791207986884,30.193137499969453,j,0,1.168315084069036,None,,,,,,,002,001,2023-10-05_13h02.56.991,DRM_HieuLe,2023.2.1,60.24528881480341,2023-10-05 13h03.04.727177 -0500,
encoding_list1.xlsx,recall_list1.xlsx,temper,old,f,0,0,0,0,0,,,,,0,3,3,1,30.208134999964386,,,,,,,,,,,,,,,,,,,,,,,,,,,,,,30.193899416946806,30.208134999964386,30.208134999964386,30.95974895800464,f,0,0.7372675419319421,None,,,,,,,002,001,2023-10-05_13h02.56.991,DRM_HieuLe,2023.2.1,60.24528881480341,2023-10-05 13h03.04.727177 -0500,
encoding_list1.xlsx,recall_list1.xlsx,dragon,new,j,0,0,0,0,0,,,,,0,4,4,11,30.97467287501786,,,,,,,,,,,,,,,,,,,,,,,,,,,,,,30.96034004201647,30.97467287501786,30.97467287501786,32.05950983299408,j,0,1.0756076250690967,None,,,,,,,002,001,2023-10-05_13h02.56.991,DRM_HieuLe,2023.2.1,60.24528881480341,2023-10-05 13h03.04.727177 -0500,
encoding_list1.xlsx,recall_list1.xlsx,hatred,old,f,0,0,0,0,0,,,,,0,5,5,2,32.074643542058766,,,,,,,,,,,,,,,,,,,,,,,,,,,,,,32.06020800000988,32.074643542058766,32.074643542058766,32.84278800000902,f,0,0.7587922500679269,None,,,,,,,002,001,2023-10-05_13h02.56.991,DRM_HieuLe,2023.2.1,60.24528881480341,2023-10-05 13h03.04.727177 -0500,
encoding_list1.xlsx,recall_list1.xlsx,anger,new,j,1,0,0,0,0,,,,,0,6,6,10,32.85834137501661,,,,,,,,,,,,,,,,,,,,,,,,,,,,,,32.843463791999966,32.85834137501661,32.85834137501661,33.65900200000033,f,0,0.7930724580073729,None,,,,,,,002,001,2023-10-05_13h02.56.991,DRM_HieuLe,2023.2.1,60.24528881480341,2023-10-05 13h03.04.727177 -0500,
encoding_list1.xlsx,recall_list1.xlsx,hate,old,f,0,0,0,0,0,,,,,0,7,7,6,33.67456991702784,,,,,,,,,,,,,,,,,,,,,,,,,,,,,,33.65968529204838,33.67456991702784,33.67456991702784,34.32582679204643,f,0,0.6409447499318048,None,,,,,,,002,001,2023-10-05_13h02.56.991,DRM_HieuLe,2023.2.1,60.24528881480341,2023-10-05 13h03.04.727177 -0500,
encoding_list1.xlsx,recall_list1.xlsx,file,new,j,0,0,0,0,0,,,,,0,8,8,14,34.341474832966924,,,,,,,,,,,,,,,,,,,,,,,,,,,,,,34.32663958298508,34.341474832966924,34.341474832966924,35.076376375043765,j,0,0.7225911669665948,None,,,,,,,002,001,2023-10-05_13h02.56.991,DRM_HieuLe,2023.2.1,60.24528881480341,2023-10-05 13h03.04.727177 -0500,
encoding_list1.xlsx,recall_list1.xlsx,mean,old,f,0,0,0,0,0,,,,,0,9,9,7,35.091479041962884,,,,,,,,,,,,,,,,,,,,,,,,,,,,,,35.077079624985345,35.091479041962884,35.091479041962884,35.85914279194549,f,0,0.757526833913289,None,,,,,,,002,001,2023-10-05_13h02.56.991,DRM_HieuLe,2023.2.1,60.24528881480341,2023-10-05 13h03.04.727177 -0500,
encoding_list1.xlsx,recall_list1.xlsx,tap,new,j,0,0,0,0,0,,,,,0,10,10,13,35.87542625004426,,,,,,,,,,,,,,,,,,,,,,,,,,,,,,35.85983908304479,35.87542625004426,35.87542625004426,36.6098528750008,j,0,0.7172285839915276,None,,,,,,,002,001,2023-10-05_13h02.56.991,DRM_HieuLe,2023.2.1,60.24528881480341,2023-10-05 13h03.04.727177 -0500,
encoding_list1.xlsx,recall_list1.xlsx,emotion,old,f,0,0,0,0,0,,,,,0,11,11,5,36.62444208294619,,,,,,,,,,,,,,,,,,,,,,,,,,,,,,36.61053995799739,36.62444208294619,36.62444208294619,37.242644542013295,f,0,0.6151076670503244,None,,,,,,,002,001,2023-10-05_13h02.56.991,DRM_HieuLe,2023.2.1,60.24528881480341,2023-10-05 13h03.04.727177 -0500,
encoding_list1.xlsx,recall_list1.xlsx,fight,old,f,0,0,0,0,0,,,,,0,12,12,9,37.25852095801383,,,,,,,,,,,,,,,,,,,,,,,,,,,,,,37.24332054203842,37.25852095801383,37.25852095801383,37.89285874995403,f,0,0.6226010420359671,None,,,,,,,002,001,2023-10-05_13h02.56.991,DRM_HieuLe,2023.2.1,60.24528881480341,2023-10-05 13h03.04.727177 -0500,
encoding_list1.xlsx,recall_list1.xlsx,text,new,j,0,0,0,0,0,,,,,0,13,13,15,37.90794924995862,,,,,,,,,,,,,,,,,,,,,,,,,,,,,,37.893543874961324,37.90794924995862,37.90794924995862,38.49272524996195,j,0,0.5837590839946643,None,,,,,,,002,001,2023-10-05_13h02.56.991,DRM_HieuLe,2023.2.1,60.24528881480341,2023-10-05 13h03.04.727177 -0500,
encoding_list1.xlsx,recall_list1.xlsx,wrath,old,f,0,0,0,0,0,,,,,0,14,14,8,38.50826920801774,,,,,,,,,,,,,,,,,,,,,,,,,,,,,,38.493393625016324,38.50826920801774,38.50826920801774,39.07592204201501,f,0,0.5624774999450892,None,,,,,,,002,001,2023-10-05_13h02.56.991,DRM_HieuLe,2023.2.1,60.24528881480341,2023-10-05 13h03.04.727177 -0500,
encoding_list1.xlsx,recall_list1.xlsx,enrage,old,f,0,0,0,0,0,,,,,0,15,15,4,39.09154287504498,,,,,,,,,,,,,,,,,,,,,,,,,,,,,,39.07660374999978,39.09154287504498,39.09154287504498,39.77622470795177,f,0,0.6818219580454752,None,,,,,,,002,001,2023-10-05_13h02.56.991,DRM_HieuLe,2023.2.1,60.24528881480341,2023-10-05 13h03.04.727177 -0500,
encoding_list1.xlsx,recall_list1.xlsx,egg,new,j,0,0,0,0,0,,,,,0,16,16,19,39.791604749974795,,,,,,,,,,,,,,,,,,,,,,,,,,,,,,39.77690362499561,39.791604749974795,39.791604749974795,40.376487666973844,j,0,0.5681362081086263,None,,,,,,,002,001,2023-10-05_13h02.56.991,DRM_HieuLe,2023.2.1,60.24528881480341,2023-10-05 13h03.04.727177 -0500,
encoding_list1.xlsx,recall_list1.xlsx,fear,old,f,0,0,0,0,0,,,,,0,17,17,0,40.3913773749955,,,,,,,,,,,,,,,,,,,,,,,,,,,,,,40.37718645797577,40.3913773749955,40.3913773749955,40.99314133299049,f,0,0.6006892919540405,None,,,,,,,002,001,2023-10-05_13h02.56.991,DRM_HieuLe,2023.2.1,60.24528881480341,2023-10-05 13h03.04.727177 -0500,
encoding_list1.xlsx,recall_list1.xlsx,window,new,j,0,0,0,0,0,,,,,0,18,18,12,41.008352707955055,,,,,,,,,,,,,,,,,,,,,,,,,,,,,,40.99382754205726,41.008352707955055,41.008352707955055,41.559775041998364,j,0,0.534786207950674,None,,,,,,,002,001,2023-10-05_13h02.56.991,DRM_HieuLe,2023.2.1,60.24528881480341,2023-10-05 13h03.04.727177 -0500,
encoding_list1.xlsx,recall_list1.xlsx,food,new,j,0,0,0,0,0,,,,,0,19,19,18,41.57505800004583,,,,,,,,,,,,,,,,,,,,,,,,,,,,,,41.5603972079698,41.57505800004583,41.57505800004583,42.176268958020955,j,0,0.5986072499072179,None,,,,,,,002,001,2023-10-05_13h02.56.991,DRM_HieuLe,2023.2.1,60.24528881480341,2023-10-05 13h03.04.727177 -0500,
encoding_list1.xlsx,recall_list1.xlsx,,,,,0,0,0,0,,,,,,,,,,,,,,,,,,,,,,,,,,,,,,,,,,,,,,,,,,,,,,,42.17680820799433,42.17718987504486,,,,,002,001,2023-10-05_13h02.56.991,DRM_HieuLe,2023.2.1,60.24528881480341,2023-10-05 13h03.04.727177 -0500,
encoding_list9.xlsx,recall_list9.xlsx,radio,,,,0,1,1,8,0,0,0,5,,,,,42.19672695803456,,,,,,,,,,,,,,,,,,42.18740900000557,44.192524916958064,45.19193745800294,45.17607666703407,45.17609566694591,45.19193745800294,46.19208112498745,46.175803416990675,,,,,,,,,,,,,,,,,,,002,001,2023-10-05_13h02.56.991,DRM_HieuLe,2023.2.1,60.24528881480341,2023-10-05 13h03.04.727177 -0500,
encoding_list9.xlsx,recall_list9.xlsx,melody,,,,0,1,1,8,0,1,1,8,,,,,46.19208112498745,,,,,,,,,,,,,,,,,,46.17620991705917,46.19208112498745,47.191864583059214,47.17588966700714,47.175905292038806,47.191864583059214,48.19195812498219,48.176047625020146,,,,,,,,,,,,,,,,,,,002,001,2023-10-05_13h02.56.991,DRM_HieuLe,2023.2.1,60.24528881480341,2023-10-05 13h03.04.727177 -0500,
encoding_list9.xlsx,recall_list9.xlsx,horn,,,,0,1,1,8,0,2,2,3,,,,,48.19195812498219,,,,,,,,,,,,,,,,,,48.17645279201679,48.19195812498219,49.19219879200682,49.17573262494989,49.17575075000059,49.19219879200682,50.19215604197234,50.17578312498517,,,,,,,,,,,,,,,,,,,002,001,2023-10-05_13h02.56.991,DRM_HieuLe,2023.2.1,60.24528881480341,2023-10-05 13h03.04.727177 -0500,
encoding_list9.xlsx,recall_list9.xlsx,jazz,,,,0,1,1,8,0,3,3,0,,,,,50.19215604197234,,,,,,,,,,,,,,,,,,50.1761904170271,50.19215604197234,51.19207995804027,51.17571500001941,51.175734292017296,51.19207995804027,52.19240337505471,52.17598529194947,,,,,,,,,,,,,,,,,,,002,001,2023-10-05_13h02.56.991,DRM_HieuLe,2023.2.1,60.24528881480341,2023-10-05 13h03.04.727177 -0500,
encoding_list9.xlsx,recall_list9.xlsx,orchestra,,,,0,1,1,8,0,4,4,9,,,,,52.19240337505471,,,,,,,,,,,,,,,,,,52.17638795799576,52.19240337505471,53.19194883306045,53.17580550001003,53.17582412494812,53.19194883306045,54.1921617500484,54.175991707947105,,,,,,,,,,,,,,,,,,,002,001,2023-10-05_13h02.56.991,DRM_HieuLe,2023.2.1,60.24528881480341,2023-10-05 13h03.04.727177 -0500,
encoding_list9.xlsx,recall_list9.xlsx,piano,,,,0,1,1,8,0,5,5,1,,,,,54.1921617500484,,,,,,,,,,,,,,,,,,54.17639537504874,54.1921617500484,55.19222491700202,55.17573791695759,55.17575666704215,55.19222491700202,56.19245258299634,56.17613237502519,,,,,,,,,,,,,,,,,,,002,001,2023-10-05_13h02.56.991,DRM_HieuLe,2023.2.1,60.24528881480341,2023-10-05 13h03.04.727177 -0500,
encoding_list9.xlsx,recall_list9.xlsx,symphony,,,,0,1,1,8,0,6,6,2,,,,,56.19245258299634,,,,,,,,,,,,,,,,,,56.17653862503357,56.19245258299634,57.19226133299526,57.17618333303835,57.176202542032115,57.19226133299526,58.19239187496714,58.17584629205521,,,,,,,,,,,,,,,,,,,002,001,2023-10-05_13h02.56.991,DRM_HieuLe,2023.2.1,60.24528881480341,2023-10-05 13h03.04.727177 -0500,
encoding_list9.xlsx,recall_list9.xlsx,band,,,,0,1,1,8,0,7,7,4,,,,,58.19239187496714,,,,,,,,,,,,,,,,,,58.17624716705177,58.19239187496714,59.19222908304073,59.17632179195061,59.17633525002748,59.19222908304073,60.19255870801862,60.17599479202181,,,,,,,,,,,,,,,,,,,002,001,2023-10-05_13h02.56.991,DRM_HieuLe,2023.2.1,60.24528881480341,2023-10-05 13h03.04.727177 -0500,
encoding_list9.xlsx,recall_list9.xlsx,note,,,,0,1,1,8,0,8,8,7,,,,,60.19255870801862,,,,,,,,,,,,,,,,,,60.176400542026386,60.19255870801862,61.19226783304475,61.17619629204273,61.17621525004506,61.19226783304475,62.192567500052974,62.17613508296199,,,,,,,,,,,,,,,,,,,002,001,2023-10-05_13h02.56.991,DRM_HieuLe,2023.2.1,60.24528881480341,2023-10-05 13h03.04.727177 -0500,
encoding_list9.xlsx,recall_list9.xlsx,concert,,,,0,1,1,8,0,9,9,6,,,,,62.192567500052974,,,,,,,,,,,,,,,,,,62.17654512496665,62.192567500052974,63.19226908299606,63.17589283303823,63.17590879194904,63.19226908299606,64.19223204196896,64.17633962503169,,,,,,,,,,,,,,,,,,,002,001,2023-10-05_13h02.56.991,DRM_HieuLe,2023.2.1,60.24528881480341,2023-10-05 13h03.04.727177 -0500,
encoding_list9.xlsx,recall_list9.xlsx,heaven,new,j,0,0,1,1,8,,,,,0,0,0,15,67.1990593749797,,,,,,,,,,,,,,,,,,,,,,,,,,64.17647562501952,64.19223204196896,67.1990593749797,67.17601866705809,67.19039904198144,67.1990593749797,67.1990593749797,69.6438946670387,j,0,2.442014708998613,None,,,,,,,002,001,2023-10-05_13h02.56.991,DRM_HieuLe,2023.2.1,60.24528881480341,2023-10-05 13h03.04.727177 -0500,
encoding_list9.xlsx,recall_list9.xlsx,note,old,f,0,0,1,1,8,,,,,0,1,1,7,69.65868300001603,,,,,,,,,,,,,,,,,,,,,,,,,,,,,,69.64483404206112,69.65868300001603,69.65868300001603,70.72752554202452,f,0,1.0657509999582544,None,,,,,,,002,001,2023-10-05_13h02.56.991,DRM_HieuLe,2023.2.1,60.24528881480341,2023-10-05 13h03.04.727177 -0500,
encoding_list9.xlsx,recall_list9.xlsx,piano,old,f,0,0,1,1,8,,,,,0,2,2,1,70.74254787503742,,,,,,,,,,,,,,,,,,,,,,,,,,,,,,70.728205833002,70.74254787503742,70.74254787503742,71.34397870802786,f,0,0.5838997500250116,None,,,,,,,002,001,2023-10-05_13h02.56.991,DRM_HieuLe,2023.2.1,60.24528881480341,2023-10-05 13h03.04.727177 -0500,
encoding_list9.xlsx,recall_list9.xlsx,peace,new,j,0,0,1,1,8,,,,,0,3,3,12,71.35914829198737,,,,,,,,,,,,,,,,,,,,,,,,,,,,,,71.34465895802714,71.35914829198737,71.35914829198737,71.97716016694903,j,0,0.6042252080515027,None,,,,,,,002,001,2023-10-05_13h02.56.991,DRM_HieuLe,2023.2.1,60.24528881480341,2023-10-05 13h03.04.727177 -0500,
encoding_list9.xlsx,recall_list9.xlsx,horn,old,f,0,0,1,1,8,,,,,0,4,4,3,71.99238887499087,,,,,,,,,,,,,,,,,,,,,,,,,,,,,,71.97774741705507,71.99238887499087,71.99238887499087,72.54394470795523,f,0,0.5345781249925494,None,,,,,,,002,001,2023-10-05_13h02.56.991,DRM_HieuLe,2023.2.1,60.24528881480341,2023-10-05 13h03.04.727177 -0500,
encoding_list9.xlsx,recall_list9.xlsx,radio,old,f,0,0,1,1,8,,,,,0,5,5,5,72.55925699998625,,,,,,,,,,,,,,,,,,,,,,,,,,,,,,72.54464304202702,72.55925699998625,72.55925699998625,73.1774049999658,f,0,0.6155959579627961,None,,,,,,,002,001,2023-10-05_13h02.56.991,DRM_HieuLe,2023.2.1,60.24528881480341,2023-10-05 13h03.04.727177 -0500,
encoding_list9.xlsx,recall_list9.xlsx,failure,new,j,0,0,1,1,8,,,,,0,6,6,19,73.19257141696289,,,,,,,,,,,,,,,,,,,,,,,,,,,,,,73.17810154205654,73.19257141696289,73.19257141696289,73.74395575001836,j,0,0.5494089169660583,None,,,,,,,002,001,2023-10-05_13h02.56.991,DRM_HieuLe,2023.2.1,60.24528881480341,2023-10-05 13h03.04.727177 -0500,
encoding_list9.xlsx,recall_list9.xlsx,era,new,j,0,0,1,1,8,,,,,0,7,7,16,73.75911854195874,,,,,,,,,,,,,,,,,,,,,,,,,,,,,,73.74478154198732,73.75911854195874,73.75911854195874,74.36054345802404,j,0,0.6003544579725713,None,,,,,,,002,001,2023-10-05_13h02.56.991,DRM_HieuLe,2023.2.1,60.24528881480341,2023-10-05 13h03.04.727177 -0500,
encoding_list9.xlsx,recall_list9.xlsx,symphony,old,f,0,0,1,1,8,,,,,0,8,8,2,74.37593750003725,,,,,,,,,,,,,,,,,,,,,,,,,,,,,,74.36122233304195,74.37593750003725,74.37593750003725,74.97729020798579,f,0,0.5845789579907432,None,,,,,,,002,001,2023-10-05_13h02.56.991,DRM_HieuLe,2023.2.1,60.24528881480341,2023-10-05 13h03.04.727177 -0500,
encoding_list9.xlsx,recall_list9.xlsx,health,new,j,0,0,1,1,8,,,,,0,9,9,11,74.99327595799696,,,,,,,,,,,,,,,,,,,,,,,,,,,,,,74.97789204202127,74.99327595799696,74.99327595799696,75.56027929205447,j,0,0.5557458749972284,None,,,,,,,002,001,2023-10-05_13h02.56.991,DRM_HieuLe,2023.2.1,60.24528881480341,2023-10-05 13h03.04.727177 -0500,
encoding_list9.xlsx,recall_list9.xlsx,melody,old,f,0,0,1,1,8,,,,,0,10,10,8,75.57596879196353,,,,,,,,,,,,,,,,,,,,,,,,,,,,,,75.56096516700927,75.57596879196353,75.57596879196353,76.07724983303342,f,0,0.4855945419985801,None,,,,,,,002,001,2023-10-05_13h02.56.991,DRM_HieuLe,2023.2.1,60.24528881480341,2023-10-05 13h03.04.727177 -0500,
encoding_list9.xlsx,recall_list9.xlsx,music,new,j,1,0,1,1,8,,,,,0,11,11,10,76.09201195801143,,,,,,,,,,,,,,,,,,,,,,,,,,,,,,76.07793304196093,76.09201195801143,76.09201195801143,76.6603724580491,f,0,0.5669990829192102,None,,,,,,,002,001,2023-10-05_13h02.56.991,DRM_HieuLe,2023.2.1,60.24528881480341,2023-10-05 13h03.04.727177 -0500,
encoding_list9.xlsx,recall_list9.xlsx,concert,old,f,0,0,1,1,8,,,,,0,12,12,6,76.67579120805021,,,,,,,,,,,,,,,,,,,,,,,,,,,,,,76.66105308302213,76.67579120805021,76.67579120805021,77.2103725830093,f,0,0.524550832924433,None,,,,,,,002,001,2023-10-05_13h02.56.991,DRM_HieuLe,2023.2.1,60.24528881480341,2023-10-05 13h03.04.727177 -0500,
encoding_list9.xlsx,recall_list9.xlsx,orchestra,old,f,0,0,1,1,8,,,,,0,13,13,9,77.22599870804697,,,,,,,,,,,,,,,,,,,,,,,,,,,,,,77.21105250006076,77.22599870804697,77.22599870804697,77.77676062495448,f,0,0.5433132080361247,None,,,,,,,002,001,2023-10-05_13h02.56.991,DRM_HieuLe,2023.2.1,60.24528881480341,2023-10-05 13h03.04.727177 -0500,
encoding_list9.xlsx,recall_list9.xlsx,basis,new,j,0,0,1,1,8,,,,,0,14,14,13,77.7921774169663,,,,,,,,,,,,,,,,,,,,,,,,,,,,,,77.77745170798153,77.7921774169663,77.7921774169663,78.34372679202352,j,0,0.5504659999860451,None,,,,,,,002,001,2023-10-05_13h02.56.991,DRM_HieuLe,2023.2.1,60.24528881480341,2023-10-05 13h03.04.727177 -0500,
encoding_list9.xlsx,recall_list9.xlsx,band,old,f,0,0,1,1,8,,,,,0,15,15,4,78.35915295802988,,,,,,,,,,,,,,,,,,,,,,,,,,,,,,78.34440041705966,78.35915295802988,78.35915295802988,78.90985729196109,f,0,0.542505083954893,None,,,,,,,002,001,2023-10-05_13h02.56.991,DRM_HieuLe,2023.2.1,60.24528881480341,2023-10-05 13h03.04.727177 -0500,
encoding_list9.xlsx,recall_list9.xlsx,spirit,new,j,0,0,1,1,8,,,,,0,16,16,18,78.92535008303821,,,,,,,,,,,,,,,,,,,,,,,,,,,,,,78.91055112495087,78.92535008303821,78.92535008303821,79.4773180000484,j,0,0.5351921250112355,None,,,,,,,002,001,2023-10-05_13h02.56.991,DRM_HieuLe,2023.2.1,60.24528881480341,2023-10-05 13h03.04.727177 -0500,
encoding_list9.xlsx,recall_list9.xlsx,way,new,j,0,0,1,1,8,,,,,0,17,17,17,79.49250133300666,,,,,,,,,,,,,,,,,,,,,,,,,,,,,,79.47794354194775,79.49250133300666,79.49250133300666,80.02720633300487,f,0,0.5336289999540895,None,,,,,,,002,001,2023-10-05_13h02.56.991,DRM_HieuLe,2023.2.1,60.24528881480341,2023-10-05 13h03.04.727177 -0500,
encoding_list9.xlsx,recall_list9.xlsx,jazz,old,f,0,0,1,1,8,,,,,0,18,18,0,80.0424021249637,,,,,,,,,,,,,,,,,,,,,,,,,,,,,,80.02788945799693,80.0424021249637,80.0424021249637,80.57695679203607,j,0,0.5189945829333737,None,,,,,,,002,001,2023-10-05_13h02.56.991,DRM_HieuLe,2023.2.1,60.24528881480341,2023-10-05 13h03.04.727177 -0500,
encoding_list9.xlsx,recall_list9.xlsx,protocol,new,j,0,0,1,1,8,,,,,0,19,19,14,80.59225433296524,,,,,,,,,,,,,,,,,,,,,,,,,,,,,,80.57767362496816,80.59225433296524,80.59225433296524,81.64346625003964,f,0,1.048118666978553,None,,,,,,,002,001,2023-10-05_13h02.56.991,DRM_HieuLe,2023.2.1,60.24528881480341,2023-10-05 13h03.04.727177 -0500,
encoding_list9.xlsx,recall_list9.xlsx,,,,,0,1,1,8,,,,,,,,,,,,,,,,,,,,,,,,,,,,,,,,,,,,,,,,,,,,,,,81.64399883302394,81.64442262495868,,,,,002,001,2023-10-05_13h02.56.991,DRM_HieuLe,2023.2.1,60.24528881480341,2023-10-05 13h03.04.727177 -0500,
encoding_list2.xlsx,recall_list2.xlsx,criminal,,,,0,2,2,1,0,0,0,3,,,,,81.66441716696136,,,,,,,,,,,,,,,,,,81.65517925005406,83.6425263750134,84.64253345795441,84.62666045804508,84.62667979195248,84.64253345795441,85.64276129205246,85.62648350000381,,,,,,,,,,,,,,,,,,,002,001,2023-10-05_13h02.56.991,DRM_HieuLe,2023.2.1,60.24528881480341,2023-10-05 13h03.04.727177 -0500,
encoding_list2.xlsx,recall_list2.xlsx,villain,,,,0,2,2,1,0,1,1,2,,,,,85.64276129205246,,,,,,,,,,,,,,,,,,85.62688645801973,85.65929512504954,86.6592169170035,86.64276541699655,86.64278437499888,86.6592169170035,87.6595882079564,87.6432403329527,,,,,,,,,,,,,,,,,,,002,001,2023-10-05_13h02.56.991,DRM_HieuLe,2023.2.1,60.24528881480341,2023-10-05 13h03.04.727177 -0500,
encoding_list2.xlsx,recall_list2.xlsx,burglar,,,,0,2,2,1,0,2,2,4,,,,,87.6595882079564,,,,,,,,,,,,,,,,,,87.64364675001707,87.6595882079564,88.65931995795108,88.64373524999246,88.64375100005418,88.65931995795108,89.65928216697648,89.64300658297725,,,,,,,,,,,,,,,,,,,002,001,2023-10-05_13h02.56.991,DRM_HieuLe,2023.2.1,60.24528881480341,2023-10-05 13h03.04.727177 -0500,
encoding_list2.xlsx,recall_list2.xlsx,steal,,,,0,2,2,1,0,3,3,0,,,,,89.65928216697648,,,,,,,,,,,,,,,,,,89.64340779196937,89.65928216697648,90.65945979196113,90.64330954197794,90.6433271249989,90.65945979196113,91.65962320799008,91.64324624999426,,,,,,,,,,,,,,,,,,,002,001,2023-10-05_13h02.56.991,DRM_HieuLe,2023.2.1,60.24528881480341,2023-10-05 13h03.04.727177 -0500,
encoding_list2.xlsx,recall_list2.xlsx,robber,,,,0,2,2,1,0,4,4,9,,,,,91.65962320799008,,,,,,,,,,,,,,,,,,91.64364583301358,91.65962320799008,92.65917445800733,92.64326333301142,92.64328254200518,92.65917445800733,93.65949900005944,93.643647333025,,,,,,,,,,,,,,,,,,,002,001,2023-10-05_13h02.56.991,DRM_HieuLe,2023.2.1,60.24528881480341,2023-10-05 13h03.04.727177 -0500,
encoding_list2.xlsx,recall_list2.xlsx,crime,,,,0,2,2,1,0,5,5,6,,,,,93.65949900005944,,,,,,,,,,,,,,,,,,93.64405362505931,93.65949900005944,94.6597947080154,94.64328099996783,94.64330079196952,94.6597947080154,95.65916083299089,95.64386054198258,,,,,,,,,,,,,,,,,,,002,001,2023-10-05_13h02.56.991,DRM_HieuLe,2023.2.1,60.24528881480341,2023-10-05 13h03.04.727177 -0500,
encoding_list2.xlsx,recall_list2.xlsx,bank,,,,0,2,2,1,0,6,6,8,,,,,95.65916083299089,,,,,,,,,,,,,,,,,,95.64426408300642,95.65916083299089,96.66010850004386,96.64385833300184,96.64387779205572,96.66010850004386,97.6596556250006,97.6434494999703,,,,,,,,,,,,,,,,,,,002,001,2023-10-05_13h02.56.991,DRM_HieuLe,2023.2.1,60.24528881480341,2023-10-05 13h03.04.727177 -0500,
encoding_list2.xlsx,recall_list2.xlsx,gun,,,,0,2,2,1,0,7,7,7,,,,,97.6596556250006,,,,,,,,,,,,,,,,,,97.6438584170537,97.6596556250006,98.65970229206141,98.64378949999809,98.64380920794792,98.65970229206141,99.66001916700043,99.64364862500224,,,,,,,,,,,,,,,,,,,002,001,2023-10-05_13h02.56.991,DRM_HieuLe,2023.2.1,60.24528881480341,2023-10-05 13h03.04.727177 -0500,
encoding_list2.xlsx,recall_list2.xlsx,jail,,,,0,2,2,1,0,8,8,1,,,,,99.66001916700043,,,,,,,,,,,,,,,,,,99.64405574998818,99.66001916700043,100.6596744999988,100.64377416705247,100.6437897500582,100.6596744999988,101.6595618330175,101.64363575004973,,,,,,,,,,,,,,,,,,,002,001,2023-10-05_13h02.56.991,DRM_HieuLe,2023.2.1,60.24528881480341,2023-10-05 13h03.04.727177 -0500,
encoding_list2.xlsx,recall_list2.xlsx,money,,,,0,2,2,1,0,9,9,5,,,,,101.6595618330175,,,,,,,,,,,,,,,,,,101.64404329203535,101.6595618330175,102.65945787495002,102.64378220797516,102.64379754196852,102.65945787495002,103.65991591697093,103.6432436669711,,,,,,,,,,,,,,,,,,,002,001,2023-10-05_13h02.56.991,DRM_HieuLe,2023.2.1,60.24528881480341,2023-10-05 13h03.04.727177 -0500,
encoding_list2.xlsx,recall_list2.xlsx,jail,old,f,0,0,2,2,1,,,,,0,0,0,1,106.66646712494548,,,,,,,,,,,,,,,,,,,,,,,,,,103.64337575004902,103.65991591697093,106.66646712494548,106.64363604201935,106.65784533298574,106.66646712494548,106.66646712494548,107.77736908302177,f,0,1.1028667089994997,None,,,,,,,002,001,2023-10-05_13h02.56.991,DRM_HieuLe,2023.2.1,60.24528881480341,2023-10-05 13h03.04.727177 -0500,
encoding_list2.xlsx,recall_list2.xlsx,carrier,new,j,0,0,2,2,1,,,,,0,1,1,16,107.79313354205806,,,,,,,,,,,,,,,,,,,,,,,,,,,,,,107.77849449997302,107.79313354205806,107.79313354205806,108.49442862498108,j,0,0.689544124994427,None,,,,,,,002,001,2023-10-05_13h02.56.991,DRM_HieuLe,2023.2.1,60.24528881480341,2023-10-05 13h03.04.727177 -0500,
encoding_list2.xlsx,recall_list2.xlsx,boy,new,j,0,0,2,2,1,,,,,0,2,2,12,108.50980141700711,,,,,,,,,,,,,,,,,,,,,,,,,,,,,,108.49510833295062,108.50980141700711,108.50980141700711,109.09419108298607,j,0,0.5820704590296373,None,,,,,,,002,001,2023-10-05_13h02.56.991,DRM_HieuLe,2023.2.1,60.24528881480341,2023-10-05 13h03.04.727177 -0500,
encoding_list2.xlsx,recall_list2.xlsx,money,old,f,0,0,2,2,1,,,,,0,3,3,5,109.10953941696789,,,,,,,,,,,,,,,,,,,,,,,,,,,,,,109.09477595798671,109.10953941696789,109.10953941696789,109.91079604194965,f,0,0.7983347499975935,None,,,,,,,002,001,2023-10-05_13h02.56.991,DRM_HieuLe,2023.2.1,60.24528881480341,2023-10-05 13h03.04.727177 -0500,
encoding_list2.xlsx,recall_list2.xlsx,dark,new,j,0,0,2,2,1,,,,,0,4,4,14,109.92631766700651,,,,,,,,,,,,,,,,,,,,,,,,,,,,,,109.91148670797702,109.92631766700651,109.92631766700651,110.51133212505374,j,0,0.5698303750250489,None,,,,,,,002,001,2023-10-05_13h02.56.991,DRM_HieuLe,2023.2.1,60.24528881480341,2023-10-05 13h03.04.727177 -0500,
encoding_list2.xlsx,recall_list2.xlsx,robber,old,f,0,0,2,2,1,,,,,0,5,5,9,110.52639400004409,,,,,,,,,,,,,,,,,,,,,,,,,,,,,,110.51202137500513,110.52639400004409,110.52639400004409,111.54448804201093,f,0,1.0147009170614183,None,,,,,,,002,001,2023-10-05_13h02.56.991,DRM_HieuLe,2023.2.1,60.24528881480341,2023-10-05 13h03.04.727177 -0500,
encoding_list2.xlsx,recall_list2.xlsx,steal,old,f,0,0,2,2,1,,,,,0,6,6,0,111.55979416705668,,,,,,,,,,,,,,,,,,,,,,,,,,,,,,111.54530600004364,111.55979416705668,111.55979416705668,112.21114458295051,f,0,0.6482487500179559,None,,,,,,,002,001,2023-10-05_13h02.56.991,DRM_HieuLe,2023.2.1,60.24528881480341,2023-10-05 13h03.04.727177 -0500,
encoding_list2.xlsx,recall_list2.xlsx,troll,new,j,0,0,2,2,1,,,,,0,7,7,17,112.2262487920234,,,,,,,,,,,,,,,,,,,,,,,,,,,,,,112.21196133305784,112.2262487920234,112.2262487920234,112.82787037501112,j,0,0.5846859170123935,None,,,,,,,002,001,2023-10-05_13h02.56.991,DRM_HieuLe,2023.2.1,60.24528881480341,2023-10-05 13h03.04.727177 -0500,
encoding_list2.xlsx,recall_list2.xlsx,villain,old,f,0,0,2,2,1,,,,,0,8,8,2,112.84317520796321,,,,,,,,,,,,,,,,,,,,,,,,,,,,,,112.82847149996087,112.84317520796321,112.84317520796321,113.37740724999458,f,0,0.5238024579593912,None,,,,,,,002,001,2023-10-05_13h02.56.991,DRM_HieuLe,2023.2.1,60.24528881480341,2023-10-05 13h03.04.727177 -0500,
encoding_list2.xlsx,recall_list2.xlsx,wing,new,j,0,0,2,2,1,,,,,0,9,9,19,113.39314608299173,,,,,,,,,,,,,,,,,,,,,,,,,,,,,,113.37808345805388,113.39314608299173,113.39314608299173,113.92712816700805,j,0,0.5249757090350613,None,,,,,,,002,001,2023-10-05_13h02.56.991,DRM_HieuLe,2023.2.1,60.24528881480341,2023-10-05 13h03.04.727177 -0500,
encoding_list2.xlsx,recall_list2.xlsx,burglar,old,f,0,0,2,2,1,,,,,0,10,10,4,113.94310383300763,,,,,,,,,,,,,,,,,,,,,,,,,,,,,,113.92781887506135,113.94310383300763,113.94310383300763,114.5611500829691,f,0,0.6053731249412522,None,,,,,,,002,001,2023-10-05_13h02.56.991,DRM_HieuLe,2023.2.1,60.24528881480341,2023-10-05 13h03.04.727177 -0500,
encoding_list2.xlsx,recall_list2.xlsx,thief,new,j,1,0,2,2,1,,,,,0,11,11,10,114.5762372079771,,,,,,,,,,,,,,,,,,,,,,,,,,,,,,114.56181858305354,114.5762372079771,114.5762372079771,115.12774625001475,f,0,0.5440118750557303,None,,,,,,,002,001,2023-10-05_13h02.56.991,DRM_HieuLe,2023.2.1,60.24528881480341,2023-10-05 13h03.04.727177 -0500,
encoding_list2.xlsx,recall_list2.xlsx,mark,new,j,0,0,2,2,1,,,,,0,12,12,18,115.14318516699132,,,,,,,,,,,,,,,,,,,,,,,,,,,,,,115.12854962504935,115.14318516699132,115.14318516699132,115.69442812504712,j,0,0.5362164999824017,None,,,,,,,002,001,2023-10-05_13h02.56.991,DRM_HieuLe,2023.2.1,60.24528881480341,2023-10-05 13h03.04.727177 -0500,
encoding_list2.xlsx,recall_list2.xlsx,gun,old,f,0,0,2,2,1,,,,,0,13,13,7,115.7095418330282,,,,,,,,,,,,,,,,,,,,,,,,,,,,,,115.69513058301527,115.7095418330282,115.7095418330282,116.31155450001825,f,0,0.585226709023118,None,,,,,,,002,001,2023-10-05_13h02.56.991,DRM_HieuLe,2023.2.1,60.24528881480341,2023-10-05 13h03.04.727177 -0500,
encoding_list2.xlsx,recall_list2.xlsx,crime,old,f,0,0,2,2,1,,,,,0,14,14,6,116.32688262499869,,,,,,,,,,,,,,,,,,,,,,,,,,,,,,116.31215424998663,116.32688262499869,116.32688262499869,116.91081549995579,f,0,0.5725433749612421,None,,,,,,,002,001,2023-10-05_13h02.56.991,DRM_HieuLe,2023.2.1,60.24528881480341,2023-10-05 13h03.04.727177 -0500,
encoding_list2.xlsx,recall_list2.xlsx,tie,new,j,0,0,2,2,1,,,,,0,15,15,13,116.9261819999665,,,,,,,,,,,,,,,,,,,,,,,,,,,,,,116.91149724996649,116.9261819999665,116.9261819999665,117.59441358305048,j,0,0.6612789169885218,None,,,,,,,002,001,2023-10-05_13h02.56.991,DRM_HieuLe,2023.2.1,60.24528881480341,2023-10-05 13h03.04.727177 -0500,
encoding_list2.xlsx,recall_list2.xlsx,criminal,old,f,0,0,2,2,1,,,,,0,16,16,3,117.60979754198343,,,,,,,,,,,,,,,,,,,,,,,,,,,,,,117.59509062499274,117.60979754198343,117.60979754198343,118.14420608303044,f,0,0.5240894169546664,None,,,,,,,002,001,2023-10-05_13h02.56.991,DRM_HieuLe,2023.2.1,60.24528881480341,2023-10-05 13h03.04.727177 -0500,
encoding_list2.xlsx,recall_list2.xlsx,bank,old,f,0,0,2,2,1,,,,,0,17,17,8,118.15948020794895,,,,,,,,,,,,,,,,,,,,,,,,,,,,,,118.14488975005224,118.15948020794895,118.15948020794895,118.81075808301102,f,0,0.6501613750588149,None,,,,,,,002,001,2023-10-05_13h02.56.991,DRM_HieuLe,2023.2.1,60.24528881480341,2023-10-05 13h03.04.727177 -0500,
encoding_list2.xlsx,recall_list2.xlsx,manager,new,j,0,0,2,2,1,,,,,0,18,18,11,118.82644708303269,,,,,,,,,,,,,,,,,,,,,,,,,,,,,,118.8114341669716,118.82644708303269,118.82644708303269,119.46111179201398,j,0,0.6326131670502946,None,,,,,,,002,001,2023-10-05_13h02.56.991,DRM_HieuLe,2023.2.1,60.24528881480341,2023-10-05 13h03.04.727177 -0500,
encoding_list2.xlsx,recall_list2.xlsx,river,new,j,0,0,2,2,1,,,,,0,19,19,15,119.47659233305603,,,,,,,,,,,,,,,,,,,,,,,,,,,,,,119.4617769579636,119.47659233305603,119.47659233305603,120.27743154205382,j,0,0.7978027500212193,None,,,,,,,002,001,2023-10-05_13h02.56.991,DRM_HieuLe,2023.2.1,60.24528881480341,2023-10-05 13h03.04.727177 -0500,
encoding_list2.xlsx,recall_list2.xlsx,,,,,0,2,2,1,,,,,,,,,,,,,,,,,,,,,,,,,,,,,,,,,,,,,,,,,,,,,,,120.27796562504955,120.27836162503809,,,,,002,001,2023-10-05_13h02.56.991,DRM_HieuLe,2023.2.1,60.24528881480341,2023-10-05 13h03.04.727177 -0500,
encoding_list5.xlsx,recall_list5.xlsx,view,,,,0,3,3,4,0,0,0,6,,,,,120.29803795798216,,,,,,,,,,,,,,,,,,120.28905808296986,122.27701929199975,123.27675054199062,123.26053787500132,123.2605540419463,123.27675054199062,124.27681904204655,124.26044887502212,,,,,,,,,,,,,,,,,,,002,001,2023-10-05_13h02.56.991,DRM_HieuLe,2023.2.1,60.24528881480341,2023-10-05 13h03.04.727177 -0500,
encoding_list5.xlsx,recall_list5.xlsx,glass,,,,0,3,3,4,0,1,1,8,,,,,124.27681904204655,,,,,,,,,,,,,,,,,,124.26086275000125,124.29316095798276,125.29354441701435,125.27739762503188,125.27741537499242,125.29354441701435,126.29336162505206,126.27722612500656,,,,,,,,,,,,,,,,,,,002,001,2023-10-05_13h02.56.991,DRM_HieuLe,2023.2.1,60.24528881480341,2023-10-05 13h03.04.727177 -0500,
encoding_list5.xlsx,recall_list5.xlsx,shade,,,,0,3,3,4,0,2,2,1,,,,,126.29336162505206,,,,,,,,,,,,,,,,,,126.27764479198959,126.29336162505206,127.29326870804653,127.2772528330097,127.27727108297404,127.29326870804653,128.29375579196494,128.27741179196164,,,,,,,,,,,,,,,,,,,002,001,2023-10-05_13h02.56.991,DRM_HieuLe,2023.2.1,60.24528881480341,2023-10-05 13h03.04.727177 -0500,
encoding_list5.xlsx,recall_list5.xlsx,pane,,,,0,3,3,4,0,3,3,7,,,,,128.29375579196494,,,,,,,,,,,,,,,,,,128.2778151249513,128.29375579196494,129.29340412502643,129.27739462500904,129.2774107500445,129.29340412502643,130.29377524997108,130.27716320799664,,,,,,,,,,,,,,,,,,,002,001,2023-10-05_13h02.56.991,DRM_HieuLe,2023.2.1,60.24528881480341,2023-10-05 13h03.04.727177 -0500,
encoding_list5.xlsx,recall_list5.xlsx,shutter,,,,0,3,3,4,0,4,4,9,,,,,130.29377524997108,,,,,,,,,,,,,,,,,,130.27756220800802,130.29377524997108,131.29389058297966,131.27730108296964,131.27732187497895,131.29389058297966,132.29334316705354,132.27728583302815,,,,,,,,,,,,,,,,,,,002,001,2023-10-05_13h02.56.991,DRM_HieuLe,2023.2.1,60.24528881480341,2023-10-05 13h03.04.727177 -0500,
encoding_list5.xlsx,recall_list5.xlsx,curtain,,,,0,3,3,4,0,5,5,5,,,,,132.29334316705354,,,,,,,,,,,,,,,,,,132.27768575004302,132.29334316705354,133.29377891705371,133.2774704999756,133.27748966705985,133.29377891705371,134.2938969579991,134.27763945795596,,,,,,,,,,,,,,,,,,,002,001,2023-10-05_13h02.56.991,DRM_HieuLe,2023.2.1,60.24528881480341,2023-10-05 13h03.04.727177 -0500,
encoding_list5.xlsx,recall_list5.xlsx,screen,,,,0,3,3,4,0,6,6,2,,,,,134.2938969579991,,,,,,,,,,,,,,,,,,134.2780392919667,134.2938969579991,135.29401475004852,135.2778951249784,135.2779137500329,135.29401475004852,136.29407920804806,136.2777144999709,,,,,,,,,,,,,,,,,,,002,001,2023-10-05_13h02.56.991,DRM_HieuLe,2023.2.1,60.24528881480341,2023-10-05 13h03.04.727177 -0500,
encoding_list5.xlsx,recall_list5.xlsx,door,,,,0,3,3,4,0,7,7,4,,,,,136.29407920804806,,,,,,,,,,,,,,,,,,136.2781167080393,136.29407920804806,137.29341504198965,137.27737862500362,137.27739199995995,137.29341504198965,138.29364966705907,138.27794391696807,,,,,,,,,,,,,,,,,,,002,001,2023-10-05_13h02.56.991,DRM_HieuLe,2023.2.1,60.24528881480341,2023-10-05 13h03.04.727177 -0500,
encoding_list5.xlsx,recall_list5.xlsx,sill,,,,0,3,3,4,0,8,8,0,,,,,138.29364966705907,,,,,,,,,,,,,,,,,,138.27834750001784,138.29364966705907,139.29373399994802,139.2778336670017,139.27784958295524,139.29373399994802,140.2941702080425,140.27750658302102,,,,,,,,,,,,,,,,,,,002,001,2023-10-05_13h02.56.991,DRM_HieuLe,2023.2.1,60.24528881480341,2023-10-05 13h03.04.727177 -0500,
encoding_list5.xlsx,recall_list5.xlsx,ledge,,,,0,3,3,4,0,9,9,3,,,,,140.2941702080425,,,,,,,,,,,,,,,,,,140.27791066700593,140.2941702080425,141.2937230829848,141.27744354202878,141.27746220806148,141.2937230829848,142.2936778330477,142.27778308303095,,,,,,,,,,,,,,,,,,,002,001,2023-10-05_13h02.56.991,DRM_HieuLe,2023.2.1,60.24528881480341,2023-10-05 13h03.04.727177 -0500,
encoding_list5.xlsx,recall_list5.xlsx,sill,old,f,0,0,3,3,4,,,,,0,0,0,0,145.3019692080561,,,,,,,,,,,,,,,,,,,,,,,,,,142.2779167080298,142.2936778330477,145.3019692080561,145.27801112504676,145.29331133305095,145.3019692080561,145.3019692080561,159.99472045805305,f,0,14.681101624970324,None,,,,,,,002,001,2023-10-05_13h02.56.991,DRM_HieuLe,2023.2.1,60.24528881480341,2023-10-05 13h03.04.727177 -0500,
encoding_list5.xlsx,recall_list5.xlsx,aspect,new,j,0,0,3,3,4,,,,,0,1,1,11,160.01069712499157,,,,,,,,,,,,,,,,,,,,,,,,,,,,,,159.99590275005903,160.01069712499157,160.01069712499157,160.7118889580015,j,0,0.6956488749710843,None,,,,,,,002,001,2023-10-05_13h02.56.991,DRM_HieuLe,2023.2.1,60.24528881480341,2023-10-05 13h03.04.727177 -0500,
encoding_list5.xlsx,recall_list5.xlsx,window,new,j,1,0,3,3,4,,,,,0,2,2,10,160.72731854196172,,,,,,,,,,,,,,,,,,,,,,,,,,,,,,160.71259008301422,160.72731854196172,160.72731854196172,161.17834687500726,f,0,0.4429489590693265,None,,,,,,,002,001,2023-10-05_13h02.56.991,DRM_HieuLe,2023.2.1,60.24528881480341,2023-10-05 13h03.04.727177 -0500,
encoding_list5.xlsx,recall_list5.xlsx,attitude,new,j,0,0,3,3,4,,,,,0,3,3,15,161.1940737919649,,,,,,,,,,,,,,,,,,,,,,,,,,,,,,161.17895608302206,161.1940737919649,161.1940737919649,161.67820116702933,j,0,0.47463408310431987,None,,,,,,,002,001,2023-10-05_13h02.56.991,DRM_HieuLe,2023.2.1,60.24528881480341,2023-10-05 13h03.04.727177 -0500,
encoding_list5.xlsx,recall_list5.xlsx,nobody,new,j,0,0,3,3,4,,,,,0,4,4,12,161.69373508298304,,,,,,,,,,,,,,,,,,,,,,,,,,,,,,161.67881020798814,161.69373508298304,161.69373508298304,162.212021208019,j,0,0.515891959075816,None,,,,,,,002,001,2023-10-05_13h02.56.991,DRM_HieuLe,2023.2.1,60.24528881480341,2023-10-05 13h03.04.727177 -0500,
encoding_list5.xlsx,recall_list5.xlsx,glass,old,f,0,0,3,3,4,,,,,0,5,5,8,162.22737762494944,,,,,,,,,,,,,,,,,,,,,,,,,,,,,,162.21271412505303,162.22737762494944,162.22737762494944,162.71195358305704,f,0,0.4724809159524739,None,,,,,,,002,001,2023-10-05_13h02.56.991,DRM_HieuLe,2023.2.1,60.24528881480341,2023-10-05 13h03.04.727177 -0500,
encoding_list5.xlsx,recall_list5.xlsx,shutter,old,f,0,0,3,3,4,,,,,0,6,6,9,162.72735195804853,,,,,,,,,,,,,,,,,,,,,,,,,,,,,,162.71263679198455,162.72735195804853,162.72735195804853,163.32896941702347,f,0,0.5861617090413347,None,,,,,,,002,001,2023-10-05_13h02.56.991,DRM_HieuLe,2023.2.1,60.24528881480341,2023-10-05 13h03.04.727177 -0500,
encoding_list5.xlsx,recall_list5.xlsx,curtain,old,f,0,0,3,3,4,,,,,0,7,7,5,163.34414504200686,,,,,,,,,,,,,,,,,,,,,,,,,,,,,,163.32966683304403,163.34414504200686,163.34414504200686,163.81196762504987,f,0,0.45902216702234,None,,,,,,,002,001,2023-10-05_13h02.56.991,DRM_HieuLe,2023.2.1,60.24528881480341,2023-10-05 13h03.04.727177 -0500,
encoding_list5.xlsx,recall_list5.xlsx,door,old,f,0,0,3,3,4,,,,,0,8,8,4,163.82735962502193,,,,,,,,,,,,,,,,,,,,,,,,,,,,,,163.81265079195146,163.82735962502193,163.82735962502193,164.39582137495745,f,0,0.5511858339887112,None,,,,,,,002,001,2023-10-05_13h02.56.991,DRM_HieuLe,2023.2.1,60.24528881480341,2023-10-05 13h03.04.727177 -0500,
encoding_list5.xlsx,recall_list5.xlsx,language,new,j,0,0,3,3,4,,,,,0,9,9,18,164.4108223329531,,,,,,,,,,,,,,,,,,,,,,,,,,,,,,164.39651029196102,164.4108223329531,164.4108223329531,164.97820616699755,j,0,0.5601025420473889,None,,,,,,,002,001,2023-10-05_13h02.56.991,DRM_HieuLe,2023.2.1,60.24528881480341,2023-10-05 13h03.04.727177 -0500,
encoding_list5.xlsx,recall_list5.xlsx,pane,old,f,0,0,3,3,4,,,,,0,10,10,7,164.99417800002266,,,,,,,,,,,,,,,,,,,,,,,,,,,,,,164.97888549999334,164.99417800002266,164.99417800002266,165.54521516698878,f,0,0.5422167499782518,None,,,,,,,002,001,2023-10-05_13h02.56.991,DRM_HieuLe,2023.2.1,60.24528881480341,2023-10-05 13h03.04.727177 -0500,
encoding_list5.xlsx,recall_list5.xlsx,freedom,new,j,0,0,3,3,4,,,,,0,11,11,13,165.56027966702823,,,,,,,,,,,,,,,,,,,,,,,,,,,,,,165.54589808301535,165.56027966702823,165.56027966702823,166.26181262498721,j,0,0.6915533329593018,None,,,,,,,002,001,2023-10-05_13h02.56.991,DRM_HieuLe,2023.2.1,60.24528881480341,2023-10-05 13h03.04.727177 -0500,
encoding_list5.xlsx,recall_list5.xlsx,shade,old,f,0,0,3,3,4,,,,,0,12,12,1,166.27713654201943,,,,,,,,,,,,,,,,,,,,,,,,,,,,,,166.2625056670513,166.27713654201943,166.27713654201943,167.06189691706095,f,0,0.7735338748898357,None,,,,,,,002,001,2023-10-05_13h02.56.991,DRM_HieuLe,2023.2.1,60.24528881480341,2023-10-05 13h03.04.727177 -0500,
encoding_list5.xlsx,recall_list5.xlsx,screen,old,f,0,0,3,3,4,,,,,0,13,13,2,167.07762254204135,,,,,,,,,,,,,,,,,,,,,,,,,,,,,,167.06256954197306,167.07762254204135,167.07762254204135,167.64580979198217,f,0,0.5527887080097571,None,,,,,,,002,001,2023-10-05_13h02.56.991,DRM_HieuLe,2023.2.1,60.24528881480341,2023-10-05 13h03.04.727177 -0500,
encoding_list5.xlsx,recall_list5.xlsx,method,new,j,0,0,3,3,4,,,,,0,14,14,19,167.66063783306163,,,,,,,,,,,,,,,,,,,,,,,,,,,,,,167.64648745802697,167.66063783306163,167.66063783306163,168.26201291696634,j,0,0.5960173340281472,None,,,,,,,002,001,2023-10-05_13h02.56.991,DRM_HieuLe,2023.2.1,60.24528881480341,2023-10-05 13h03.04.727177 -0500,
encoding_list5.xlsx,recall_list5.xlsx,nothing,new,j,0,0,3,3,4,,,,,0,15,15,14,168.27737191703636,,,,,,,,,,,,,,,,,,,,,,,,,,,,,,168.2626810830552,168.27737191703636,168.27737191703636,168.9451052499935,j,0,0.6588700830470771,None,,,,,,,002,001,2023-10-05_13h02.56.991,DRM_HieuLe,2023.2.1,60.24528881480341,2023-10-05 13h03.04.727177 -0500,
encoding_list5.xlsx,recall_list5.xlsx,ledge,old,f,0,0,3,3,4,,,,,0,16,16,3,168.9606662079459,,,,,,,,,,,,,,,,,,,,,,,,,,,,,,168.94579733302817,168.9606662079459,168.9606662079459,169.8115447500022,j,0,0.8423094999743626,None,,,,,,,002,001,2023-10-05_13h02.56.991,DRM_HieuLe,2023.2.1,60.24528881480341,2023-10-05 13h03.04.727177 -0500,
encoding_list5.xlsx,recall_list5.xlsx,fantasy,new,j,0,0,3,3,4,,,,,0,17,17,16,169.82782862498425,,,,,,,,,,,,,,,,,,,,,,,,,,,,,,169.81222095806152,169.82782862498425,169.82782862498425,170.39538679202087,j,0,0.5639580839779228,None,,,,,,,002,001,2023-10-05_13h02.56.991,DRM_HieuLe,2023.2.1,60.24528881480341,2023-10-05 13h03.04.727177 -0500,
encoding_list5.xlsx,recall_list5.xlsx,reality,new,j,0,0,3,3,4,,,,,0,18,18,17,170.41102212504484,,,,,,,,,,,,,,,,,,,,,,,,,,,,,,170.39621387503576,170.41102212504484,170.41102212504484,171.19515487505123,j,0,0.7768650409998372,None,,,,,,,002,001,2023-10-05_13h02.56.991,DRM_HieuLe,2023.2.1,60.24528881480341,2023-10-05 13h03.04.727177 -0500,
encoding_list5.xlsx,recall_list5.xlsx,view,old,f,0,0,3,3,4,,,,,0,19,19,6,171.21092454204336,,,,,,,,,,,,,,,,,,,,,,,,,,,,,,171.19583620794583,171.21092454204336,171.21092454204336,171.66245075000916,j,0,0.43791874998714775,None,,,,,,,002,001,2023-10-05_13h02.56.991,DRM_HieuLe,2023.2.1,60.24528881480341,2023-10-05 13h03.04.727177 -0500,
encoding_list5.xlsx,recall_list5.xlsx,,,,,0,3,3,4,,,,,,,,,,,,,,,,,,,,,,,,,,,,,,,,,,,,,,,,,,,,,,,171.6629251249833,171.66326762503013,,,,,002,001,2023-10-05_13h02.56.991,DRM_HieuLe,2023.2.1,60.24528881480341,2023-10-05 13h03.04.727177 -0500,
encoding_list6.xlsx,recall_list6.xlsx,lethargic,,,,0,4,4,5,0,0,0,8,,,,,171.682875999948,,,,,,,,,,,,,,,,,,171.67350879195146,173.67971549998038,,174.67782275006175,174.67783725005575,174.69448733294848,,175.67783879197668,,,,,,,,,,,,,,,,,,,002,001,2023-10-05_13h02.56.991,DRM_HieuLe,2023.2.1,60.24528881480341,2023-10-05 13h03.04.727177 -0500,
encoding_list6.xlsx,recall_list6.xlsx,delay,,,,0,4,4,5,0,1,1,0,,,,,175.69472875003703,,,,,,,,,,,,,,,,,,175.67824720800854,175.69472875003703,,176.67822400003206,176.67823808302637,176.69477066700347,,177.67777800001204,,,,,,,,,,,,,,,,,,,002,001,2023-10-05_13h02.56.991,DRM_HieuLe,2023.2.1,60.24528881480341,2023-10-05 13h03.04.727177 -0500,
encoding_list6.xlsx,recall_list6.xlsx,cautious,,,,0,4,4,5,0,2,2,6,,,,,177.69438216695562,,,,,,,,,,,,,,,,,,177.67817312502302,177.69438216695562,,178.67781545803882,178.6778270000359,178.69447924999986,,179.67838504200336,,,,,,,,,,,,,,,,,,,002,001,2023-10-05_13h02.56.991,DRM_HieuLe,2023.2.1,60.24528881480341,2023-10-05 13h03.04.727177 -0500,
encoding_list6.xlsx,recall_list6.xlsx,snail,,,,0,4,4,5,0,3,3,3,,,,,179.6949967079563,,,,,,,,,,,,,,,,,,179.6787767499918,179.6949967079563,,180.67829745798372,180.67830887495074,180.69422774994746,,181.67796541703865,,,,,,,,,,,,,,,,,,,002,001,2023-10-05_13h02.56.991,DRM_HieuLe,2023.2.1,60.24528881480341,2023-10-05 13h03.04.727177 -0500,
encoding_list6.xlsx,recall_list6.xlsx,listless,,,,0,4,4,5,0,4,4,7,,,,,181.6942750000162,,,,,,,,,,,,,,,,,,181.6783564579673,181.6942750000162,,182.67826937499922,182.67828291701153,182.69478445802815,,183.67791604204103,,,,,,,,,,,,,,,,,,,002,001,2023-10-05_13h02.56.991,DRM_HieuLe,2023.2.1,60.24528881480341,2023-10-05 13h03.04.727177 -0500,
encoding_list6.xlsx,recall_list6.xlsx,sluggish,,,,0,4,4,5,0,5,5,4,,,,,183.6949115829775,,,,,,,,,,,,,,,,,,183.67830491694622,183.6949115829775,,184.67821625003126,184.67822841694579,184.69445499998983,,185.6786618330516,,,,,,,,,,,,,,,,,,,002,001,2023-10-05_13h02.56.991,DRM_HieuLe,2023.2.1,60.24528881480341,2023-10-05 13h03.04.727177 -0500,
encoding_list6.xlsx,recall_list6.xlsx,wait,,,,0,4,4,5,0,6,6,2,,,,,185.6949258330278,,,,,,,,,,,,,,,,,,185.6790674580261,185.6949258330278,,186.67838175001089,186.67839620797895,186.6949069580296,,187.67823612503707,,,,,,,,,,,,,,,,,,,002,001,2023-10-05_13h02.56.991,DRM_HieuLe,2023.2.1,60.24528881480341,2023-10-05 13h03.04.727177 -0500,
encoding_list6.xlsx,recall_list6.xlsx,traffic,,,,0,4,4,5,0,7,7,9,,,,,187.6950290830573,,,,,,,,,,,,,,,,,,187.67865233297925,187.6950290830573,,188.67870425002184,188.6787160000531,188.69524604198523,,189.67876308294944,,,,,,,,,,,,,,,,,,,002,001,2023-10-05_13h02.56.991,DRM_HieuLe,2023.2.1,60.24528881480341,2023-10-05 13h03.04.727177 -0500,
encoding_list6.xlsx,recall_list6.xlsx,hesitant,,,,0,4,4,5,0,8,8,5,,,,,189.69516737503,,,,,,,,,,,,,,,,,,189.6791590830544,189.69516737503,,190.67812654201407,190.67814062500838,190.6950496250065,,191.67810408305377,,,,,,,,,,,,,,,,,,,002,001,2023-10-05_13h02.56.991,DRM_HieuLe,2023.2.1,60.24528881480341,2023-10-05 13h03.04.727177 -0500,
encoding_list6.xlsx,recall_list6.xlsx,stop,,,,0,4,4,5,0,9,9,1,,,,,191.69502041698433,,,,,,,,,,,,,,,,,,191.67848862498067,191.69502041698433,,192.67816679202951,192.67818087502383,192.69469541695435,,193.67831520806067,,,,,,,,,,,,,,,,,,,002,001,2023-10-05_13h02.56.991,DRM_HieuLe,2023.2.1,60.24528881480341,2023-10-05 13h03.04.727177 -0500,
encoding_list6.xlsx,recall_list6.xlsx,snail,old,f,0,0,4,4,5,,,,,0,0,0,3,196.70465774997137,,,,,,,,,,,,,,,,,,,,,,,,,,193.678444875055,193.6948357919464,,196.6784037919715,196.69506904203445,196.70465774997137,196.70465774997137,206.32935200002976,f,0,9.621886415989138,None,,,,,,,002,001,2023-10-05_13h02.56.991,DRM_HieuLe,2023.2.1,60.24528881480341,2023-10-05 13h03.04.727177 -0500,
encoding_list6.xlsx,recall_list6.xlsx,loss,new,j,0,0,4,4,5,,,,,0,1,1,12,206.34510887495708,,,,,,,,,,,,,,,,,,,,,,,,,,,,,,206.33029079204425,206.34510887495708,206.34510887495708,207.02978479198646,j,0,0.6819926250027493,None,,,,,,,002,001,2023-10-05_13h02.56.991,DRM_HieuLe,2023.2.1,60.24528881480341,2023-10-05 13h03.04.727177 -0500,
encoding_list6.xlsx,recall_list6.xlsx,delay,old,f,0,0,4,4,5,,,,,0,2,2,0,207.04492541705258,,,,,,,,,,,,,,,,,,,,,,,,,,,,,,207.03044887504075,207.04492541705258,207.04492541705258,208.09629720798694,f,0,1.037303833058104,None,,,,,,,002,001,2023-10-05_13h02.56.991,DRM_HieuLe,2023.2.1,60.24528881480341,2023-10-05 13h03.04.727177 -0500,
encoding_list6.xlsx,recall_list6.xlsx,wait,old,f,0,0,4,4,5,,,,,0,3,3,2,208.11140091705602,,,,,,,,,,,,,,,,,,,,,,,,,,,,,,208.09698312496766,208.11140091705602,208.11140091705602,208.82927824999206,f,0,0.7167864999501035,None,,,,,,,002,001,2023-10-05_13h02.56.991,DRM_HieuLe,2023.2.1,60.24528881480341,2023-10-05 13h03.04.727177 -0500,
encoding_list6.xlsx,recall_list6.xlsx,February,new,j,0,0,4,4,5,,,,,0,4,4,16,208.84501616703346,,,,,,,,,,,,,,,,,,,,,,,,,,,,,,208.82994141697418,208.84501616703346,208.84501616703346,209.46285258303396,j,0,0.610496542067267,None,,,,,,,002,001,2023-10-05_13h02.56.991,DRM_HieuLe,2023.2.1,60.24528881480341,2023-10-05 13h03.04.727177 -0500,
encoding_list6.xlsx,recall_list6.xlsx,slow,new,j,1,0,4,4,5,,,,,0,5,5,10,209.47806016705,,,,,,,,,,,,,,,,,,,,,,,,,,,,,,209.46352437499445,209.47806016705,209.47806016705,210.22977258299943,f,0,0.7485937079181895,None,,,,,,,002,001,2023-10-05_13h02.56.991,DRM_HieuLe,2023.2.1,60.24528881480341,2023-10-05 13h03.04.727177 -0500,
encoding_list6.xlsx,recall_list6.xlsx,conflict,new,j,0,0,4,4,5,,,,,0,6,6,15,210.24503995804116,,,,,,,,,,,,,,,,,,,,,,,,,,,,,,210.2306034170324,210.24503995804116,210.24503995804116,210.81306866696104,j,0,0.5547274169512093,None,,,,,,,002,001,2023-10-05_13h02.56.991,DRM_HieuLe,2023.2.1,60.24528881480341,2023-10-05 13h03.04.727177 -0500,
encoding_list6.xlsx,recall_list6.xlsx,creation,new,j,0,0,4,4,5,,,,,0,7,7,11,210.8282790420344,,,,,,,,,,,,,,,,,,,,,,,,,,,,,,210.8137478750432,210.8282790420344,210.8282790420344,211.44653504202142,j,0,0.6005183750530705,None,,,,,,,002,001,2023-10-05_13h02.56.991,DRM_HieuLe,2023.2.1,60.24528881480341,2023-10-05 13h03.04.727177 -0500,
encoding_list6.xlsx,recall_list6.xlsx,listless,old,f,0,0,4,4,5,,,,,0,8,8,7,211.4616760830395,,,,,,,,,,,,,,,,,,,,,,,,,,,,,,211.4472160829464,211.4616760830395,211.4616760830395,212.01287008298095,j,0,0.5451588329160586,None,,,,,,,002,001,2023-10-05_13h02.56.991,DRM_HieuLe,2023.2.1,60.24528881480341,2023-10-05 13h03.04.727177 -0500,
encoding_list6.xlsx,recall_list6.xlsx,purpose,new,j,0,0,4,4,5,,,,,0,9,9,14,212.02847925003152,,,,,,,,,,,,,,,,,,,,,,,,,,,,,,212.01368137495592,212.02847925003152,212.02847925003152,212.62920708302408,j,0,0.5949385419953614,None,,,,,,,002,001,2023-10-05_13h02.56.991,DRM_HieuLe,2023.2.1,60.24528881480341,2023-10-05 13h03.04.727177 -0500,
encoding_list6.xlsx,recall_list6.xlsx,sluggish,old,f,0,0,4,4,5,,,,,0,10,10,4,212.64510337496176,,,,,,,,,,,,,,,,,,,,,,,,,,,,,,212.62988358305302,212.64510337496176,212.64510337496176,213.26351787499152,f,0,0.6015307909110561,None,,,,,,,002,001,2023-10-05_13h02.56.991,DRM_HieuLe,2023.2.1,60.24528881480341,2023-10-05 13h03.04.727177 -0500,
encoding_list6.xlsx,recall_list6.xlsx,ability,new,j,0,0,4,4,5,,,,,0,11,11,17,213.27829745796043,,,,,,,,,,,,,,,,,,,,,,,,,,,,,,213.26419833302498,213.27829745796043,213.27829745796043,213.81359200004954,j,0,0.5173627499025315,None,,,,,,,002,001,2023-10-05_13h02.56.991,DRM_HieuLe,2023.2.1,60.24528881480341,2023-10-05 13h03.04.727177 -0500,
encoding_list6.xlsx,recall_list6.xlsx,cautious,old,f,0,0,4,4,5,,,,,0,12,12,6,213.82832604204305,,,,,,,,,,,,,,,,,,,,,,,,,,,,,,213.81426237500273,213.82832604204305,213.82832604204305,214.44657233299222,j,0,0.6102639999007806,None,,,,,,,002,001,2023-10-05_13h02.56.991,DRM_HieuLe,2023.2.1,60.24528881480341,2023-10-05 13h03.04.727177 -0500,
encoding_list6.xlsx,recall_list6.xlsx,logic,new,j,0,0,4,4,5,,,,,0,13,13,13,214.46170550002716,,,,,,,,,,,,,,,,,,,,,,,,,,,,,,214.44739824999124,214.46170550002716,214.46170550002716,215.09609362494666,f,0,0.6226545840036124,None,,,,,,,002,001,2023-10-05_13h02.56.991,DRM_HieuLe,2023.2.1,60.24528881480341,2023-10-05 13h03.04.727177 -0500,
encoding_list6.xlsx,recall_list6.xlsx,stop,old,f,0,0,4,4,5,,,,,0,14,14,1,215.1117184170289,,,,,,,,,,,,,,,,,,,,,,,,,,,,,,215.09682554204483,215.1117184170289,215.1117184170289,215.52993512502871,j,0,0.4157871659845114,None,,,,,,,002,001,2023-10-05_13h02.56.991,DRM_HieuLe,2023.2.1,60.24528881480341,2023-10-05 13h03.04.727177 -0500,
encoding_list6.xlsx,recall_list6.xlsx,traffic,old,f,0,0,4,4,5,,,,,0,15,15,9,215.54524074995425,,,,,,,,,,,,,,,,,,,,,,,,,,,,,,215.53060000005644,215.54524074995425,215.54524074995425,216.14637762506027,j,0,0.5878686660435051,None,,,,,,,002,001,2023-10-05_13h02.56.991,DRM_HieuLe,2023.2.1,60.24528881480341,2023-10-05 13h03.04.727177 -0500,
encoding_list6.xlsx,recall_list6.xlsx,lethargic,old,f,0,0,4,4,5,,,,,0,16,16,8,216.16152729198802,,,,,,,,,,,,,,,,,,,,,,,,,,,,,,216.14705483301077,216.16152729198802,216.16152729198802,217.08000091696158,f,0,0.9156373749719933,None,,,,,,,002,001,2023-10-05_13h02.56.991,DRM_HieuLe,2023.2.1,60.24528881480341,2023-10-05 13h03.04.727177 -0500,
encoding_list6.xlsx,recall_list6.xlsx,truth,new,j,0,0,4,4,5,,,,,0,17,17,19,217.09549116704147,,,,,,,,,,,,,,,,,,,,,,,,,,,,,,217.08081245794892,217.09549116704147,217.09549116704147,217.7631843329873,j,0,0.6538932080147788,None,,,,,,,002,001,2023-10-05_13h02.56.991,DRM_HieuLe,2023.2.1,60.24528881480341,2023-10-05 13h03.04.727177 -0500,
encoding_list6.xlsx,recall_list6.xlsx,hesitant,old,f,0,0,4,4,5,,,,,0,18,18,5,217.77847641694825,,,,,,,,,,,,,,,,,,,,,,,,,,,,,,217.7638505420182,217.77847641694825,217.77847641694825,218.3791780420579,j,0,0.5924044999992475,None,,,,,,,002,001,2023-10-05_13h02.56.991,DRM_HieuLe,2023.2.1,60.24528881480341,2023-10-05 13h03.04.727177 -0500,
encoding_list6.xlsx,recall_list6.xlsx,exposure,new,j,0,0,4,4,5,,,,,0,19,19,18,218.39496325002983,,,,,,,,,,,,,,,,,,,,,,,,,,,,,,218.37986162502784,218.39496325002983,218.39496325002983,218.96376416704152,f,0,0.5674441249575466,None,,,,,,,002,001,2023-10-05_13h02.56.991,DRM_HieuLe,2023.2.1,60.24528881480341,2023-10-05 13h03.04.727177 -0500,
encoding_list6.xlsx,recall_list6.xlsx,,,,,0,4,4,5,,,,,,,,,,,,,,,,,,,,,,,,,,,,,,,,,,,,,,,,,,,,,,,218.96430287498515,218.96470816701185,,,,,002,001,2023-10-05_13h02.56.991,DRM_HieuLe,2023.2.1,60.24528881480341,2023-10-05 13h03.04.727177 -0500,
encoding_list7.xlsx,recall_list7.xlsx,swivel,,,,0,5,5,6,0,0,0,6,,,,,218.9840100830188,,,,,,,,,,,,,,,,,,218.97484825004358,220.9789507080568,221.97870658303145,221.96256300003733,221.96257920796052,221.97870658303145,222.9787175829988,222.96249912504572,,,,,,,,,,,,,,,,,,,002,001,2023-10-05_13h02.56.991,DRM_HieuLe,2023.2.1,60.24528881480341,2023-10-05 13h03.04.727177 -0500,
encoding_list7.xlsx,recall_list7.xlsx,sofa,,,,0,5,5,6,0,1,1,1,,,,,222.9787175829988,,,,,,,,,,,,,,,,,,222.96291491703596,222.9787175829988,223.97857729205862,223.96271004201844,223.96272716706153,223.97857729205862,224.97829958295915,224.96267195802648,,,,,,,,,,,,,,,,,,,002,001,2023-10-05_13h02.56.991,DRM_HieuLe,2023.2.1,60.24528881480341,2023-10-05 13h03.04.727177 -0500,
encoding_list7.xlsx,recall_list7.xlsx,table,,,,0,5,5,6,0,2,2,7,,,,,224.97829958295915,,,,,,,,,,,,,,,,,,224.9630881670164,224.97829958295915,225.97928287496325,225.9629061250016,225.9629251670558,225.97928287496325,226.97904033295345,226.96278329205234,,,,,,,,,,,,,,,,,,,002,001,2023-10-05_13h02.56.991,DRM_HieuLe,2023.2.1,60.24528881480341,2023-10-05 13h03.04.727177 -0500,
encoding_list7.xlsx,recall_list7.xlsx,wood,,,,0,5,5,6,0,3,3,9,,,,,226.97904033295345,,,,,,,,,,,,,,,,,,226.9631974999793,226.97904033295345,227.97862308297772,227.9625576250255,227.96257708303165,227.97862308297772,228.97912174998783,228.96277166705113,,,,,,,,,,,,,,,,,,,002,001,2023-10-05_13h02.56.991,DRM_HieuLe,2023.2.1,60.24528881480341,2023-10-05 13h03.04.727177 -0500,
encoding_list7.xlsx,recall_list7.xlsx,sit,,,,0,5,5,6,0,4,4,5,,,,,228.97912174998783,,,,,,,,,,,,,,,,,,228.96318249998149,228.97912174998783,229.97877308295574,229.96311158302706,229.96312770794611,229.97877308295574,230.97887545800768,230.96306858304888,,,,,,,,,,,,,,,,,,,002,001,2023-10-05_13h02.56.991,DRM_HieuLe,2023.2.1,60.24528881480341,2023-10-05 13h03.04.727177 -0500,
encoding_list7.xlsx,recall_list7.xlsx,cushion,,,,0,5,5,6,0,5,5,2,,,,,230.97887545800768,,,,,,,,,,,,,,,,,,230.96347449999303,230.97887545800768,231.97884250001516,231.96257554204203,231.96259433298837,231.97884250001516,232.97945658303797,232.96267904201522,,,,,,,,,,,,,,,,,,,002,001,2023-10-05_13h02.56.991,DRM_HieuLe,2023.2.1,60.24528881480341,2023-10-05 13h03.04.727177 -0500,
encoding_list7.xlsx,recall_list7.xlsx,seat,,,,0,5,5,6,0,6,6,8,,,,,232.97945658303797,,,,,,,,,,,,,,,,,,232.96307425003033,232.97945658303797,233.97888070798945,233.96287362498697,233.9628930829931,233.97888070798945,234.97938258305658,234.9630977079505,,,,,,,,,,,,,,,,,,,002,001,2023-10-05_13h02.56.991,DRM_HieuLe,2023.2.1,60.24528881480341,2023-10-05 13h03.04.727177 -0500,
encoding_list7.xlsx,recall_list7.xlsx,desk,,,,0,5,5,6,0,7,7,0,,,,,234.97938258305658,,,,,,,,,,,,,,,,,,234.963498792029,234.97938258305658,235.97880949999671,235.96279258304276,235.96281229204033,235.97880949999671,236.9790357920574,236.9626611249987,,,,,,,,,,,,,,,,,,,002,001,2023-10-05_13h02.56.991,DRM_HieuLe,2023.2.1,60.24528881480341,2023-10-05 13h03.04.727177 -0500,
encoding_list7.xlsx,recall_list7.xlsx,bench,,,,0,5,5,6,0,8,8,4,,,,,236.9790357920574,,,,,,,,,,,,,,,,,,236.96306412504055,236.9790357920574,237.97903499996755,237.96303287497722,237.9630517079495,237.97903499996755,238.97901374998037,238.96279387502,,,,,,,,,,,,,,,,,,,002,001,2023-10-05_13h02.56.991,DRM_HieuLe,2023.2.1,60.24528881480341,2023-10-05 13h03.04.727177 -0500,
encoding_list7.xlsx,recall_list7.xlsx,recliner,,,,0,5,5,6,0,9,9,3,,,,,238.97901374998037,,,,,,,,,,,,,,,,,,238.96319783304352,238.97901374998037,239.97921966703143,239.96333283302374,239.96335187496152,239.97921966703143,240.97910037497059,240.9625970419729,,,,,,,,,,,,,,,,,,,002,001,2023-10-05_13h02.56.991,DRM_HieuLe,2023.2.1,60.24528881480341,2023-10-05 13h03.04.727177 -0500,
encoding_list7.xlsx,recall_list7.xlsx,status,new,j,0,0,5,5,6,,,,,0,0,0,11,243.98705016705208,,,,,,,,,,,,,,,,,,,,,,,,,,240.96273195801768,240.97910037497059,243.98705016705208,243.9632333329646,243.97805320797488,243.98705016705208,243.98705016705208,244.8967784580309,f,0,0.9031459169927984,None,,,,,,,002,001,2023-10-05_13h02.56.991,DRM_HieuLe,2023.2.1,60.24528881480341,2023-10-05 13h03.04.727177 -0500,
encoding_list7.xlsx,recall_list7.xlsx,desk,old,f,0,0,5,5,6,,,,,0,1,1,0,244.91240212495904,,,,,,,,,,,,,,,,,,,,,,,,,,,,,,244.89770500001032,244.91240212495904,244.91240212495904,245.03027049999218,j,0,0.10428158403374255,None,,,,,,,002,001,2023-10-05_13h02.56.991,DRM_HieuLe,2023.2.1,60.24528881480341,2023-10-05 13h03.04.727177 -0500,
encoding_list7.xlsx,recall_list7.xlsx,vice,new,j,0,0,5,5,6,,,,,0,2,2,18,245.04546670801938,,,,,,,,,,,,,,,,,,,,,,,,,,,,,,245.03086033300497,245.04546670801938,245.04546670801938,245.1460050420137,f,0,0.09045187500305474,None,,,,,,,002,001,2023-10-05_13h02.56.991,DRM_HieuLe,2023.2.1,60.24528881480341,2023-10-05 13h03.04.727177 -0500,
encoding_list7.xlsx,recall_list7.xlsx,concept,new,j,0,0,5,5,6,,,,,0,3,3,16,245.16237945796456,,,,,,,,,,,,,,,,,,,,,,,,,,,,,,245.1465295830276,245.16237945796456,245.16237945796456,245.2466183330398,j,0,0.07778649998363107,None,,,,,,,002,001,2023-10-05_13h02.56.991,DRM_HieuLe,2023.2.1,60.24528881480341,2023-10-05 13h03.04.727177 -0500,
encoding_list7.xlsx,recall_list7.xlsx,swivel,old,f,0,0,5,5,6,,,,,0,4,4,6,245.26245087501593,,,,,,,,,,,,,,,,,,,,,,,,,,,,,,245.24712162499782,245.26245087501593,245.26245087501593,245.36346879205666,f,0,0.0919962499756366,None,,,,,,,002,001,2023-10-05_13h02.56.991,DRM_HieuLe,2023.2.1,60.24528881480341,2023-10-05 13h03.04.727177 -0500,
encoding_list7.xlsx,recall_list7.xlsx,priority,new,j,0,0,5,5,6,,,,,0,5,5,17,245.37929179205094,,,,,,,,,,,,,,,,,,,,,,,,,,,,,,245.36397979198955,245.37929179205094,245.37929179205094,245.44628304196522,j,0,0.057232084101997316,None,,,,,,,002,001,2023-10-05_13h02.56.991,DRM_HieuLe,2023.2.1,60.24528881480341,2023-10-05 13h03.04.727177 -0500,
encoding_list7.xlsx,recall_list7.xlsx,bench,old,f,0,0,5,5,6,,,,,0,6,6,4,245.46279145800509,,,,,,,,,,,,,,,,,,,,,,,,,,,,,,245.4467660000082,245.46279145800509,245.46279145800509,245.56360391702037,f,0,0.08641750004608184,None,,,,,,,002,001,2023-10-05_13h02.56.991,DRM_HieuLe,2023.2.1,60.24528881480341,2023-10-05 13h03.04.727177 -0500,
encoding_list7.xlsx,recall_list7.xlsx,motif,new,j,0,0,5,5,6,,,,,0,7,7,15,245.57951337494887,,,,,,,,,,,,,,,,,,,,,,,,,,,,,,245.5640692920424,245.57951337494887,245.57951337494887,245.66310374997556,j,0,0.07417104206979275,None,,,,,,,002,001,2023-10-05_13h02.56.991,DRM_HieuLe,2023.2.1,60.24528881480341,2023-10-05 13h03.04.727177 -0500,
encoding_list7.xlsx,recall_list7.xlsx,latter,new,j,0,0,5,5,6,,,,,0,8,8,14,245.67923958296888,,,,,,,,,,,,,,,,,,,,,,,,,,,,,,245.66356487502344,245.67923958296888,245.67923958296888,245.76307941705454,f,0,0.07633262500166893,None,,,,,,,002,001,2023-10-05_13h02.56.991,DRM_HieuLe,2023.2.1,60.24528881480341,2023-10-05 13h03.04.727177 -0500,
encoding_list7.xlsx,recall_list7.xlsx,sofa,old,f,0,0,5,5,6,,,,,0,9,9,1,245.7790197499562,,,,,,,,,,,,,,,,,,,,,,,,,,,,,,245.7635304579744,245.7790197499562,245.7790197499562,245.88015641702805,j,0,0.09828166698571295,None,,,,,,,002,001,2023-10-05_13h02.56.991,DRM_HieuLe,2023.2.1,60.24528881480341,2023-10-05 13h03.04.727177 -0500,
encoding_list7.xlsx,recall_list7.xlsx,seat,old,f,0,0,5,5,6,,,,,0,10,10,8,245.89615608297754,,,,,,,,,,,,,,,,,,,,,,,,,,,,,,245.88061179197393,245.89615608297754,245.89615608297754,245.9971097500529,f,0,0.08465033292304724,None,,,,,,,002,001,2023-10-05_13h02.56.991,DRM_HieuLe,2023.2.1,60.24528881480341,2023-10-05 13h03.04.727177 -0500,
encoding_list7.xlsx,recall_list7.xlsx,wood,old,f,0,0,5,5,6,,,,,0,11,11,9,246.01276366703678,,,,,,,,,,,,,,,,,,,,,,,,,,,,,,245.99755583296064,246.01276366703678,246.01276366703678,246.0798546250444,j,0,0.059781541931442916,None,,,,,,,002,001,2023-10-05_13h02.56.991,DRM_HieuLe,2023.2.1,60.24528881480341,2023-10-05 13h03.04.727177 -0500,
encoding_list7.xlsx,recall_list7.xlsx,cushion,old,f,0,0,5,5,6,,,,,0,12,12,2,246.09589095797855,,,,,,,,,,,,,,,,,,,,,,,,,,,,,,246.08030733303167,246.09589095797855,246.09589095797855,246.19679783296306,f,0,0.08440129098016769,None,,,,,,,002,001,2023-10-05_13h02.56.991,DRM_HieuLe,2023.2.1,60.24528881480341,2023-10-05 13h03.04.727177 -0500,
encoding_list7.xlsx,recall_list7.xlsx,table,old,f,0,0,5,5,6,,,,,0,13,13,7,246.21212433301844,,,,,,,,,,,,,,,,,,,,,,,,,,,,,,246.1972501249984,246.21212433301844,246.21212433301844,246.2796564999735,j,0,0.05770454206503928,None,,,,,,,002,001,2023-10-05_13h02.56.991,DRM_HieuLe,2023.2.1,60.24528881480341,2023-10-05 13h03.04.727177 -0500,
encoding_list7.xlsx,recall_list7.xlsx,recliner,old,f,0,0,5,5,6,,,,,0,14,14,3,246.29526775004342,,,,,,,,,,,,,,,,,,,,,,,,,,,,,,246.28019937500358,246.29526775004342,246.29526775004342,246.39640258299187,f,0,0.09075604192912579,None,,,,,,,002,001,2023-10-05_13h02.56.991,DRM_HieuLe,2023.2.1,60.24528881480341,2023-10-05 13h03.04.727177 -0500,
encoding_list7.xlsx,recall_list7.xlsx,soul,new,j,0,0,5,5,6,,,,,0,15,15,19,246.41253199998755,,,,,,,,,,,,,,,,,,,,,,,,,,,,,,246.39690837496892,246.41253199998755,246.41253199998755,246.43055974994786,j,0,0.0014765829546377063,None,,,,,,,002,001,2023-10-05_13h02.56.991,DRM_HieuLe,2023.2.1,60.24528881480341,2023-10-05 13h03.04.727177 -0500,
encoding_list7.xlsx,recall_list7.xlsx,sit,old,f,0,0,5,5,6,,,,,0,16,16,5,246.44614174996968,,,,,,,,,,,,,,,,,,,,,,,,,,,,,,246.43101587495767,246.44614174996968,246.44614174996968,246.5966422080528,f,0,0.13582079100888222,None,,,,,,,002,001,2023-10-05_13h02.56.991,DRM_HieuLe,2023.2.1,60.24528881480341,2023-10-05 13h03.04.727177 -0500,
encoding_list7.xlsx,recall_list7.xlsx,intent,new,j,0,0,5,5,6,,,,,0,17,17,12,246.613184332964,,,,,,,,,,,,,,,,,,,,,,,,,,,,,,246.59715745795984,246.613184332964,246.613184332964,246.91356462496333,j,0,0.29752170806750655,None,,,,,,,002,001,2023-10-05_13h02.56.991,DRM_HieuLe,2023.2.1,60.24528881480341,2023-10-05 13h03.04.727177 -0500,
encoding_list7.xlsx,recall_list7.xlsx,chair,new,j,1,0,5,5,6,,,,,0,18,18,10,246.92885162495077,,,,,,,,,,,,,,,,,,,,,,,,,,,,,,246.91415383305866,246.92885162495077,246.92885162495077,247.0799129579682,f,0,0.14550075004808605,None,,,,,,,002,001,2023-10-05_13h02.56.991,DRM_HieuLe,2023.2.1,60.24528881480341,2023-10-05 13h03.04.727177 -0500,
encoding_list7.xlsx,recall_list7.xlsx,duty,new,j,0,0,5,5,6,,,,,0,19,19,13,247.0957969169831,,,,,,,,,,,,,,,,,,,,,,,,,,,,,,247.0805083749583,247.0957969169831,247.0957969169831,247.2299475419568,j,0,0.12405279104132205,None,,,,,,,002,001,2023-10-05_13h02.56.991,DRM_HieuLe,2023.2.1,60.24528881480341,2023-10-05 13h03.04.727177 -0500,
encoding_list7.xlsx,recall_list7.xlsx,,,,,0,5,5,6,,,,,,,,,,,,,,,,,,,,,,,,,,,,,,,,,,,,,,,,,,,,,,,247.23040862497874,247.23069700005,,,,,002,001,2023-10-05_13h02.56.991,DRM_HieuLe,2023.2.1,60.24528881480341,2023-10-05 13h03.04.727177 -0500,
encoding_list3.xlsx,recall_list3.xlsx,pear,,,,0,6,6,2,0,0,0,8,,,,,247.24759666703176,,,,,,,,,,,,,,,,,,247.2394324579509,249.22934650001116,250.22928970796056,250.2133005419746,250.21331987495068,250.22928970796056,251.2297470420599,251.21314250002615,,,,,,,,,,,,,,,,,,,002,001,2023-10-05_13h02.56.991,DRM_HieuLe,2023.2.1,60.24528881480341,2023-10-05 13h03.04.727177 -0500,
encoding_list3.xlsx,recall_list3.xlsx,orange,,,,0,6,6,2,0,1,1,4,,,,,251.2297470420599,,,,,,,,,,,,,,,,,,251.21353595796973,251.2297470420599,252.22987399995327,252.21321241697297,252.21323120803572,252.22987399995327,253.2299016249599,253.21322841697838,,,,,,,,,,,,,,,,,,,002,001,2023-10-05_13h02.56.991,DRM_HieuLe,2023.2.1,60.24528881480341,2023-10-05 13h03.04.727177 -0500,
encoding_list3.xlsx,recall_list3.xlsx,citrus,,,,0,6,6,2,0,2,2,1,,,,,253.2299016249599,,,,,,,,,,,,,,,,,,253.21361320803408,253.2299016249599,254.22963354201056,254.21317108301446,254.21319016697817,254.22963354201056,255.22943866695277,255.21313804201782,,,,,,,,,,,,,,,,,,,002,001,2023-10-05_13h02.56.991,DRM_HieuLe,2023.2.1,60.24528881480341,2023-10-05 13h03.04.727177 -0500,
encoding_list3.xlsx,recall_list3.xlsx,berry,,,,0,6,6,2,0,3,3,6,,,,,255.22943866695277,,,,,,,,,,,,,,,,,,255.2135264580138,255.22943866695277,256.22983137494884,256.2130265829619,256.2130422500195,256.22983137494884,257.2291185830254,257.213440624997,,,,,,,,,,,,,,,,,,,002,001,2023-10-05_13h02.56.991,DRM_HieuLe,2023.2.1,60.24528881480341,2023-10-05 13h03.04.727177 -0500,
encoding_list3.xlsx,recall_list3.xlsx,basket,,,,0,6,6,2,0,4,4,5,,,,,257.2291185830254,,,,,,,,,,,,,,,,,,257.21385520801414,257.2291185830254,258.229812375037,258.21371875004843,258.2137377919862,258.229812375037,259.22979266697075,259.2136587080313,,,,,,,,,,,,,,,,,,,002,001,2023-10-05_13h02.56.991,DRM_HieuLe,2023.2.1,60.24528881480341,2023-10-05 13h03.04.727177 -0500,
encoding_list3.xlsx,recall_list3.xlsx,apple,,,,0,6,6,2,0,5,5,9,,,,,259.22979266697075,,,,,,,,,,,,,,,,,,259.21405812504236,259.22979266697075,260.2302825419465,260.21380395803135,260.2138232080033,260.2302825419465,261.2297671249835,261.2134337499738,,,,,,,,,,,,,,,,,,,002,001,2023-10-05_13h02.56.991,DRM_HieuLe,2023.2.1,60.24528881480341,2023-10-05 13h03.04.727177 -0500,
encoding_list3.xlsx,recall_list3.xlsx,ripe,,,,0,6,6,2,0,6,6,0,,,,,261.2297671249835,,,,,,,,,,,,,,,,,,261.2138314580079,261.2297671249835,262.2294937080005,262.2136851249961,262.21370425005443,262.2294937080005,263.2296073749894,263.2135078329593,,,,,,,,,,,,,,,,,,,002,001,2023-10-05_13h02.56.991,DRM_HieuLe,2023.2.1,60.24528881480341,2023-10-05 13h03.04.727177 -0500,
encoding_list3.xlsx,recall_list3.xlsx,kiwi,,,,0,6,6,2,0,7,7,7,,,,,263.2296073749894,,,,,,,,,,,,,,,,,,263.213901833049,263.2296073749894,264.22981516702566,264.2135293330066,264.213547708001,264.22981516702566,265.2294759170618,265.2137980000116,,,,,,,,,,,,,,,,,,,002,001,2023-10-05_13h02.56.991,DRM_HieuLe,2023.2.1,60.24528881480341,2023-10-05 13h03.04.727177 -0500,
encoding_list3.xlsx,recall_list3.xlsx,juice,,,,0,6,6,2,0,8,8,2,,,,,265.2294759170618,,,,,,,,,,,,,,,,,,265.2141931250226,265.2294759170618,266.22981495806016,266.2135569580132,266.21357570798136,266.22981495806016,267.23009229195304,267.21342616702896,,,,,,,,,,,,,,,,,,,002,001,2023-10-05_13h02.56.991,DRM_HieuLe,2023.2.1,60.24528881480341,2023-10-05 13h03.04.727177 -0500,
encoding_list3.xlsx,recall_list3.xlsx,banana,,,,0,6,6,2,0,9,9,3,,,,,267.23009229195304,,,,,,,,,,,,,,,,,,267.2138228750555,267.23009229195304,268.229574667057,268.2135619580513,268.21358120802324,268.229574667057,269.2304102079943,269.21395437500905,,,,,,,,,,,,,,,,,,,002,001,2023-10-05_13h02.56.991,DRM_HieuLe,2023.2.1,60.24528881480341,2023-10-05 13h03.04.727177 -0500,
encoding_list3.xlsx,recall_list3.xlsx,ripe,old,f,0,0,6,6,2,,,,,0,0,0,0,272.23713695805054,,,,,,,,,,,,,,,,,,,,,,,,,,269.21412799996324,269.2304102079943,272.23713695805054,272.2136478329776,272.2287874999456,272.23713695805054,272.23713695805054,272.81438304204494,j,0,0.5692974580451846,None,,,,,,,002,001,2023-10-05_13h02.56.991,DRM_HieuLe,2023.2.1,60.24528881480341,2023-10-05 13h03.04.727177 -0500,
encoding_list3.xlsx,recall_list3.xlsx,orange,old,f,0,0,6,6,2,,,,,0,1,1,4,272.8294190419838,,,,,,,,,,,,,,,,,,,,,,,,,,,,,,272.8153080829652,272.8294190419838,272.8294190419838,272.9142628329573,f,0,0.0681052909931168,None,,,,,,,002,001,2023-10-05_13h02.56.991,DRM_HieuLe,2023.2.1,60.24528881480341,2023-10-05 13h03.04.727177 -0500,
encoding_list3.xlsx,recall_list3.xlsx,diamond,new,j,0,0,6,6,2,,,,,0,2,2,18,272.9298485000618,,,,,,,,,,,,,,,,,,,,,,,,,,,,,,272.91485679196194,272.9298485000618,272.9298485000618,273.04709333297797,j,0,0.11527012498117983,None,,,,,,,002,001,2023-10-05_13h02.56.991,DRM_HieuLe,2023.2.1,60.24528881480341,2023-10-05 13h03.04.727177 -0500,
encoding_list3.xlsx,recall_list3.xlsx,fruit,new,j,1,0,6,6,2,,,,,0,3,3,10,273.06288783298805,,,,,,,,,,,,,,,,,,,,,,,,,,,,,,273.0476730420487,273.06288783298805,273.06288783298805,273.09706533304416,f,0,0.027127499924972653,None,,,,,,,002,001,2023-10-05_13h02.56.991,DRM_HieuLe,2023.2.1,60.24528881480341,2023-10-05 13h03.04.727177 -0500,
encoding_list3.xlsx,recall_list3.xlsx,banana,old,f,0,0,6,6,2,,,,,0,4,4,3,273.11286487500183,,,,,,,,,,,,,,,,,,,,,,,,,,,,,,273.0976462919498,273.11286487500183,273.11286487500183,273.24689704203047,f,0,0.1264571249485016,None,,,,,,,002,001,2023-10-05_13h02.56.991,DRM_HieuLe,2023.2.1,60.24528881480341,2023-10-05 13h03.04.727177 -0500,
encoding_list3.xlsx,recall_list3.xlsx,citrus,old,f,0,0,6,6,2,,,,,0,5,5,1,273.26335258304607,,,,,,,,,,,,,,,,,,,,,,,,,,,,,,273.24740579200443,273.26335258304607,273.26335258304607,273.2802535420051,j,0,0.012446374981664121,None,,,,,,,002,001,2023-10-05_13h02.56.991,DRM_HieuLe,2023.2.1,60.24528881480341,2023-10-05 13h03.04.727177 -0500,
encoding_list3.xlsx,recall_list3.xlsx,novel,new,j,0,0,6,6,2,,,,,0,6,6,13,273.29692324995995,,,,,,,,,,,,,,,,,,,,,,,,,,,,,,273.2807503750082,273.29692324995995,273.29692324995995,273.4302171249874,f,0,0.12737175007350743,None,,,,,,,002,001,2023-10-05_13h02.56.991,DRM_HieuLe,2023.2.1,60.24528881480341,2023-10-05 13h03.04.727177 -0500,
encoding_list3.xlsx,recall_list3.xlsx,pear,old,f,0,0,6,6,2,,,,,0,7,7,8,273.4465717499843,,,,,,,,,,,,,,,,,,,,,,,,,,,,,,273.4307281250367,273.4465717499843,273.4465717499843,273.4805312920362,j,0,0.025309792021289468,None,,,,,,,002,001,2023-10-05_13h02.56.991,DRM_HieuLe,2023.2.1,60.24528881480341,2023-10-05 13h03.04.727177 -0500,
encoding_list3.xlsx,recall_list3.xlsx,apple,old,f,0,0,6,6,2,,,,,0,8,8,9,273.49637970805634,,,,,,,,,,,,,,,,,,,,,,,,,,,,,,273.4810407500481,273.49637970805634,273.49637970805634,273.6139620830072,f,0,0.11544124991632998,None,,,,,,,002,001,2023-10-05_13h02.56.991,DRM_HieuLe,2023.2.1,60.24528881480341,2023-10-05 13h03.04.727177 -0500,
encoding_list3.xlsx,recall_list3.xlsx,basket,old,f,0,0,6,6,2,,,,,0,9,9,5,273.62961566704325,,,,,,,,,,,,,,,,,,,,,,,,,,,,,,273.6144851250574,273.62961566704325,273.62961566704325,273.69779662496876,j,0,0.05179733398836106,None,,,,,,,002,001,2023-10-05_13h02.56.991,DRM_HieuLe,2023.2.1,60.24528881480341,2023-10-05 13h03.04.727177 -0500,
encoding_list3.xlsx,recall_list3.xlsx,arm,new,j,0,0,6,6,2,,,,,0,10,10,16,273.71362670802046,,,,,,,,,,,,,,,,,,,,,,,,,,,,,,273.6982559580356,273.71362670802046,273.71362670802046,273.8140182499774,f,0,0.09944004204589874,None,,,,,,,002,001,2023-10-05_13h02.56.991,DRM_HieuLe,2023.2.1,60.24528881480341,2023-10-05 13h03.04.727177 -0500,
encoding_list3.xlsx,recall_list3.xlsx,log,new,j,0,0,6,6,2,,,,,0,11,11,11,273.82953404204454,,,,,,,,,,,,,,,,,,,,,,,,,,,,,,273.81449041701853,273.82953404204454,273.82953404204454,273.8972652920056,j,0,0.059633207973092794,None,,,,,,,002,001,2023-10-05_13h02.56.991,DRM_HieuLe,2023.2.1,60.24528881480341,2023-10-05 13h03.04.727177 -0500,
encoding_list3.xlsx,recall_list3.xlsx,fish,new,j,0,0,6,6,2,,,,,0,12,12,14,273.9132593329996,,,,,,,,,,,,,,,,,,,,,,,,,,,,,,273.8977192500606,273.9132593329996,273.9132593329996,273.9973873749841,f,0,0.08120583300478756,None,,,,,,,002,001,2023-10-05_13h02.56.991,DRM_HieuLe,2023.2.1,60.24528881480341,2023-10-05 13h03.04.727177 -0500,
encoding_list3.xlsx,recall_list3.xlsx,shop,new,j,0,0,6,6,2,,,,,0,13,13,17,274.01361687504686,,,,,,,,,,,,,,,,,,,,,,,,,,,,,,273.9978434999939,274.01361687504686,274.01361687504686,274.11405304202344,j,0,0.08381450001616031,None,,,,,,,002,001,2023-10-05_13h02.56.991,DRM_HieuLe,2023.2.1,60.24528881480341,2023-10-05 13h03.04.727177 -0500,
encoding_list3.xlsx,recall_list3.xlsx,juice,old,f,0,0,6,6,2,,,,,0,14,14,2,274.13022495794576,,,,,,,,,,,,,,,,,,,,,,,,,,,,,,274.1144988749875,274.13022495794576,274.13022495794576,274.1973454579711,f,0,0.055074125062674284,None,,,,,,,002,001,2023-10-05_13h02.56.991,DRM_HieuLe,2023.2.1,60.24528881480341,2023-10-05 13h03.04.727177 -0500,
encoding_list3.xlsx,recall_list3.xlsx,lake,new,j,0,0,6,6,2,,,,,0,15,15,12,274.21346841705963,,,,,,,,,,,,,,,,,,,,,,,,,,,,,,274.19780120800715,274.21346841705963,274.21346841705963,274.31386824999936,j,0,0.09003091708291322,None,,,,,,,002,001,2023-10-05_13h02.56.991,DRM_HieuLe,2023.2.1,60.24528881480341,2023-10-05 13h03.04.727177 -0500,
encoding_list3.xlsx,recall_list3.xlsx,lung,new,j,0,0,6,6,2,,,,,0,16,16,15,274.3296556250425,,,,,,,,,,,,,,,,,,,,,,,,,,,,,,274.31432045798283,274.3296556250425,274.3296556250425,274.3803560419474,f,0,0.03734879195690155,None,,,,,,,002,001,2023-10-05_13h02.56.991,DRM_HieuLe,2023.2.1,60.24528881480341,2023-10-05 13h03.04.727177 -0500,
encoding_list3.xlsx,recall_list3.xlsx,court,new,j,0,0,6,6,2,,,,,0,17,17,19,274.3968396249693,,,,,,,,,,,,,,,,,,,,,,,,,,,,,,274.3808095830027,274.3968396249693,274.3968396249693,274.5138912500115,j,0,0.11606583395041525,None,,,,,,,002,001,2023-10-05_13h02.56.991,DRM_HieuLe,2023.2.1,60.24528881480341,2023-10-05 13h03.04.727177 -0500,
encoding_list3.xlsx,recall_list3.xlsx,kiwi,old,f,0,0,6,6,2,,,,,0,18,18,7,274.5298409999814,,,,,,,,,,,,,,,,,,,,,,,,,,,,,,274.51435083302204,274.5298409999814,274.5298409999814,274.71376695798244,f,0,0.17902637494262308,None,,,,,,,002,001,2023-10-05_13h02.56.991,DRM_HieuLe,2023.2.1,60.24528881480341,2023-10-05 13h03.04.727177 -0500,
encoding_list3.xlsx,recall_list3.xlsx,berry,old,f,0,0,6,6,2,,,,,0,19,19,6,274.73004687495995,,,,,,,,,,,,,,,,,,,,,,,,,,,,,,274.71421408304013,274.73004687495995,274.73004687495995,274.93033091700636,f,0,0.1928015840239823,None,,,,,,,002,001,2023-10-05_13h02.56.991,DRM_HieuLe,2023.2.1,60.24528881480341,2023-10-05 13h03.04.727177 -0500,
encoding_list3.xlsx,recall_list3.xlsx,,,,,0,6,6,2,,,,,,,,,,,,,,,,,,,,,,,,,,,,,,,,,,,,,,,,,,,,,,,274.9306945420103,274.9309417499462,,,,,002,001,2023-10-05_13h02.56.991,DRM_HieuLe,2023.2.1,60.24528881480341,2023-10-05 13h03.04.727177 -0500,
encoding_list8.xlsx,recall_list8.xlsx,bed,,,,0,7,7,7,0,0,0,1,,,,,274.946506917011,,,,,,,,,,,,,,,,,,274.9384320829995,276.92966470797546,277.9300597079564,277.9139248330612,277.91394408303313,277.9300597079564,278.9302537080366,278.9141251669498,,,,,,,,,,,,,,,,,,,002,001,2023-10-05_13h02.56.991,DRM_HieuLe,2023.2.1,60.24528881480341,2023-10-05 13h03.04.727177 -0500,
encoding_list8.xlsx,recall_list8.xlsx,slumber,,,,0,7,7,7,0,1,1,8,,,,,278.9302537080366,,,,,,,,,,,,,,,,,,278.9145159580512,278.9302537080366,279.92974804202095,279.913732792018,279.9137482079677,279.92974804202095,280.93021816702094,280.91376537503675,,,,,,,,,,,,,,,,,,,002,001,2023-10-05_13h02.56.991,DRM_HieuLe,2023.2.1,60.24528881480341,2023-10-05 13h03.04.727177 -0500,
encoding_list8.xlsx,recall_list8.xlsx,snore,,,,0,7,7,7,0,2,2,6,,,,,280.93021816702094,,,,,,,,,,,,,,,,,,280.9141699169995,280.93021816702094,281.92983879195526,281.9138861669926,281.9139014170505,281.92983879195526,282.9298318750225,282.9135381249944,,,,,,,,,,,,,,,,,,,002,001,2023-10-05_13h02.56.991,DRM_HieuLe,2023.2.1,60.24528881480341,2023-10-05 13h03.04.727177 -0500,
encoding_list8.xlsx,recall_list8.xlsx,rest,,,,0,7,7,7,0,3,3,0,,,,,282.9298318750225,,,,,,,,,,,,,,,,,,282.9139289580053,282.9298318750225,283.9304516670527,283.9142302919645,283.9142451250227,283.9304516670527,284.930017375038,284.9139742080588,,,,,,,,,,,,,,,,,,,002,001,2023-10-05_13h02.56.991,DRM_HieuLe,2023.2.1,60.24528881480341,2023-10-05 13h03.04.727177 -0500,
encoding_list8.xlsx,recall_list8.xlsx,dream,,,,0,7,7,7,0,4,4,9,,,,,284.930017375038,,,,,,,,,,,,,,,,,,284.91436595795676,284.930017375038,285.9298505419865,285.9137580830138,285.91377337498125,285.9298505419865,286.930041500018,286.91376420797314,,,,,,,,,,,,,,,,,,,002,001,2023-10-05_13h02.56.991,DRM_HieuLe,2023.2.1,60.24528881480341,2023-10-05 13h03.04.727177 -0500,
encoding_list8.xlsx,recall_list8.xlsx,awake,,,,0,7,7,7,0,5,5,5,,,,,286.930041500018,,,,,,,,,,,,,,,,,,286.91417454194743,286.930041500018,287.9300950419856,287.9136568750255,287.91367566701956,287.9300950419856,288.9299877920421,288.91409820795525,,,,,,,,,,,,,,,,,,,002,001,2023-10-05_13h02.56.991,DRM_HieuLe,2023.2.1,60.24528881480341,2023-10-05 13h03.04.727177 -0500,
encoding_list8.xlsx,recall_list8.xlsx,doze,,,,0,7,7,7,0,6,6,3,,,,,288.9299877920421,,,,,,,,,,,,,,,,,,288.9145072919782,288.9299877920421,289.9299457919551,289.9136900419835,289.91370545804966,289.9299457919551,290.930051250034,290.9136203749804,,,,,,,,,,,,,,,,,,,002,001,2023-10-05_13h02.56.991,DRM_HieuLe,2023.2.1,60.24528881480341,2023-10-05 13h03.04.727177 -0500,
encoding_list8.xlsx,recall_list8.xlsx,blanket,,,,0,7,7,7,0,7,7,7,,,,,290.930051250034,,,,,,,,,,,,,,,,,,290.91401933296584,290.930051250034,291.9300492920447,291.9147892079782,291.9148086250061,291.9300492920447,292.92997199995443,292.91433712502476,,,,,,,,,,,,,,,,,,,002,001,2023-10-05_13h02.56.991,DRM_HieuLe,2023.2.1,60.24528881480341,2023-10-05 13h03.04.727177 -0500,
encoding_list8.xlsx,recall_list8.xlsx,yawn,,,,0,7,7,7,0,8,8,4,,,,,292.92997199995443,,,,,,,,,,,,,,,,,,292.914731708006,292.92997199995443,293.93012999999337,293.9136877079727,293.91370345803443,293.93012999999337,294.9303791250568,294.9137210419867,,,,,,,,,,,,,,,,,,,002,001,2023-10-05_13h02.56.991,DRM_HieuLe,2023.2.1,60.24528881480341,2023-10-05 13h03.04.727177 -0500,
encoding_list8.xlsx,recall_list8.xlsx,snooze,,,,0,7,7,7,0,9,9,2,,,,,294.9303791250568,,,,,,,,,,,,,,,,,,294.91411729203537,294.9303791250568,295.93085720797535,295.9140578750521,295.9140734580578,295.93085720797535,296.93078199995216,296.9139341249829,,,,,,,,,,,,,,,,,,,002,001,2023-10-05_13h02.56.991,DRM_HieuLe,2023.2.1,60.24528881480341,2023-10-05 13h03.04.727177 -0500,
encoding_list8.xlsx,recall_list8.xlsx,blanket,old,f,0,0,7,7,7,,,,,0,0,0,7,299.9369430829538,,,,,,,,,,,,,,,,,,,,,,,,,,296.9140705000609,296.93078199995216,299.9369430829538,299.9138739169575,299.928210083046,299.9369430829538,299.9369430829538,301.33096266700886,j,0,1.3884155410341918,None,,,,,,,002,001,2023-10-05_13h02.56.991,DRM_HieuLe,2023.2.1,60.24528881480341,2023-10-05 13h03.04.727177 -0500,
encoding_list8.xlsx,recall_list8.xlsx,slumber,old,f,0,0,7,7,7,,,,,0,1,1,8,301.34668025001884,,,,,,,,,,,,,,,,,,,,,,,,,,,,,,301.33188629196957,301.34668025001884,301.34668025001884,301.3647151249461,f,0,0.01587458304129541,None,,,,,,,002,001,2023-10-05_13h02.56.991,DRM_HieuLe,2023.2.1,60.24528881480341,2023-10-05 13h03.04.727177 -0500,
encoding_list8.xlsx,recall_list8.xlsx,manner,new,j,0,0,7,7,7,,,,,0,2,2,15,301.38019575004,,,,,,,,,,,,,,,,,,,,,,,,,,,,,,301.36536483303644,301.38019575004,301.38019575004,301.61482725001406,f,0,0.22132933407556266,None,,,,,,,002,001,2023-10-05_13h02.56.991,DRM_HieuLe,2023.2.1,60.24528881480341,2023-10-05 13h03.04.727177 -0500,
encoding_list8.xlsx,recall_list8.xlsx,bed,old,f,0,0,7,7,7,,,,,0,3,3,1,301.6298261670163,,,,,,,,,,,,,,,,,,,,,,,,,,,,,,301.6153977919603,301.6298261670163,301.6298261670163,301.83127537497785,j,0,0.1865463750436902,None,,,,,,,002,001,2023-10-05_13h02.56.991,DRM_HieuLe,2023.2.1,60.24528881480341,2023-10-05 13h03.04.727177 -0500,
encoding_list8.xlsx,recall_list8.xlsx,sleep,new,j,1,0,7,7,7,,,,,0,4,4,10,301.8468139580218,,,,,,,,,,,,,,,,,,,,,,,,,,,,,,301.83186070795637,301.8468139580218,301.8468139580218,301.8649211250013,f,0,0.0010641250992193818,None,,,,,,,002,001,2023-10-05_13h02.56.991,DRM_HieuLe,2023.2.1,60.24528881480341,2023-10-05 13h03.04.727177 -0500,
encoding_list8.xlsx,recall_list8.xlsx,memory,new,j,0,0,7,7,7,,,,,0,5,5,11,301.8802763329586,,,,,,,,,,,,,,,,,,,,,,,,,,,,,,301.86543208302464,301.8802763329586,301.8802763329586,302.0482505830005,j,0,0.15169345797039568,None,,,,,,,002,001,2023-10-05_13h02.56.991,DRM_HieuLe,2023.2.1,60.24528881480341,2023-10-05 13h03.04.727177 -0500,
encoding_list8.xlsx,recall_list8.xlsx,rest,old,f,0,0,7,7,7,,,,,0,6,6,0,302.0634612500435,,,,,,,,,,,,,,,,,,,,,,,,,,,,,,302.04877312504686,302.0634612500435,302.0634612500435,302.08078604203183,f,0,0.007907708990387619,None,,,,,,,002,001,2023-10-05_13h02.56.991,DRM_HieuLe,2023.2.1,60.24528881480341,2023-10-05 13h03.04.727177 -0500,
encoding_list8.xlsx,recall_list8.xlsx,ways,new,j,0,0,7,7,7,,,,,0,7,7,18,302.09690958296414,,,,,,,,,,,,,,,,,,,,,,,,,,,,,,302.081273082993,302.09690958296414,302.09690958296414,302.24790308298543,f,0,0.13711899996269494,None,,,,,,,002,001,2023-10-05_13h02.56.991,DRM_HieuLe,2023.2.1,60.24528881480341,2023-10-05 13h03.04.727177 -0500,
encoding_list8.xlsx,recall_list8.xlsx,awake,old,f,0,0,7,7,7,,,,,0,8,8,5,302.2631840000395,,,,,,,,,,,,,,,,,,,,,,,,,,,,,,302.2484462079592,302.2631840000395,302.2631840000395,302.4146637079539,f,0,0.14925937494263053,None,,,,,,,002,001,2023-10-05_13h02.56.991,DRM_HieuLe,2023.2.1,60.24528881480341,2023-10-05 13h03.04.727177 -0500,
encoding_list8.xlsx,recall_list8.xlsx,effort,new,j,0,0,7,7,7,,,,,0,9,9,16,302.4309608329786,,,,,,,,,,,,,,,,,,,,,,,,,,,,,,302.4151660420466,302.4309608329786,302.4309608329786,302.5474926669849,f,0,0.1135060420492664,None,,,,,,,002,001,2023-10-05_13h02.56.991,DRM_HieuLe,2023.2.1,60.24528881480341,2023-10-05 13h03.04.727177 -0500,
encoding_list8.xlsx,recall_list8.xlsx,yawn,old,f,0,0,7,7,7,,,,,0,10,10,4,302.56360395799857,,,,,,,,,,,,,,,,,,,,,,,,,,,,,,302.54795999999624,302.56360395799857,302.56360395799857,302.6308022500016,j,0,0.05682554200757295,None,,,,,,,002,001,2023-10-05_13h02.56.991,DRM_HieuLe,2023.2.1,60.24528881480341,2023-10-05 13h03.04.727177 -0500,
encoding_list8.xlsx,recall_list8.xlsx,joy,new,j,0,0,7,7,7,,,,,0,11,11,19,302.64732966700103,,,,,,,,,,,,,,,,,,,,,,,,,,,,,,302.631270791986,302.64732966700103,302.64732966700103,302.76419612497557,f,0,0.11142991692759097,None,,,,,,,002,001,2023-10-05_13h02.56.991,DRM_HieuLe,2023.2.1,60.24528881480341,2023-10-05 13h03.04.727177 -0500,
encoding_list8.xlsx,recall_list8.xlsx,snore,old,f,0,0,7,7,7,,,,,0,12,12,6,302.7804230420152,,,,,,,,,,,,,,,,,,,,,,,,,,,,,,302.76465533301234,302.7804230420152,302.7804230420152,302.79761224996764,j,0,0.015019499929621816,None,,,,,,,002,001,2023-10-05_13h02.56.991,DRM_HieuLe,2023.2.1,60.24528881480341,2023-10-05 13h03.04.727177 -0500,
encoding_list8.xlsx,recall_list8.xlsx,dream,old,f,0,0,7,7,7,,,,,0,13,13,9,302.81359954201616,,,,,,,,,,,,,,,,,,,,,,,,,,,,,,302.7980540000135,302.81359954201616,302.81359954201616,302.9312004169915,f,0,0.10721016605384648,None,,,,,,,002,001,2023-10-05_13h02.56.991,DRM_HieuLe,2023.2.1,60.24528881480341,2023-10-05 13h03.04.727177 -0500,
encoding_list8.xlsx,recall_list8.xlsx,snooze,old,f,0,0,7,7,7,,,,,0,14,14,2,302.9470633750316,,,,,,,,,,,,,,,,,,,,,,,,,,,,,,302.9317131669959,302.9470633750316,302.9470633750316,302.9643585829763,j,0,0.01061991706956178,None,,,,,,,002,001,2023-10-05_13h02.56.991,DRM_HieuLe,2023.2.1,60.24528881480341,2023-10-05 13h03.04.727177 -0500,
encoding_list8.xlsx,recall_list8.xlsx,compiler,new,j,0,0,7,7,7,,,,,0,15,15,14,302.9801335419761,,,,,,,,,,,,,,,,,,,,,,,,,,,,,,302.9648046250222,302.9801335419761,302.9801335419761,303.11445700004697,f,0,0.12090329197235405,None,,,,,,,002,001,2023-10-05_13h02.56.991,DRM_HieuLe,2023.2.1,60.24528881480341,2023-10-05 13h03.04.727177 -0500,
encoding_list8.xlsx,recall_list8.xlsx,fiction,new,j,0,0,7,7,7,,,,,0,16,16,12,303.1303533749888,,,,,,,,,,,,,,,,,,,,,,,,,,,,,,303.1149717080407,303.1303533749888,303.1303533749888,303.14765954203904,j,0,0.00761754100676626,None,,,,,,,002,001,2023-10-05_13h02.56.991,DRM_HieuLe,2023.2.1,60.24528881480341,2023-10-05 13h03.04.727177 -0500,
encoding_list8.xlsx,recall_list8.xlsx,decision,new,j,0,0,7,7,7,,,,,0,17,17,13,303.1634692080552,,,,,,,,,,,,,,,,,,,,,,,,,,,,,,303.1481093750335,303.1634692080552,303.1634692080552,303.28096408303827,j,0,0.11540912499185652,None,,,,,,,002,001,2023-10-05_13h02.56.991,DRM_HieuLe,2023.2.1,60.24528881480341,2023-10-05 13h03.04.727177 -0500,
encoding_list8.xlsx,recall_list8.xlsx,doze,old,f,0,0,7,7,7,,,,,0,18,18,3,303.2975173329469,,,,,,,,,,,,,,,,,,,,,,,,,,,,,,303.28141937498003,303.2975173329469,303.2975173329469,303.4813265419798,f,0,0.18303033302072436,None,,,,,,,002,001,2023-10-05_13h02.56.991,DRM_HieuLe,2023.2.1,60.24528881480341,2023-10-05 13h03.04.727177 -0500,
encoding_list8.xlsx,recall_list8.xlsx,max,new,j,0,0,7,7,7,,,,,0,19,19,17,303.49687116697896,,,,,,,,,,,,,,,,,,,,,,,,,,,,,,303.4817839580355,303.49687116697896,303.49687116697896,303.5143818750512,j,0,0.015411917003802955,None,,,,,,,002,001,2023-10-05_13h02.56.991,DRM_HieuLe,2023.2.1,60.24528881480341,2023-10-05 13h03.04.727177 -0500,
encoding_list8.xlsx,recall_list8.xlsx,,,,,0,7,7,7,,,,,,,,,,,,,,,,,,,,,,,,,,,,,,,,,,,,,,,,,,,,,,,303.51473249995615,303.5149817500496,,,,,002,001,2023-10-05_13h02.56.991,DRM_HieuLe,2023.2.1,60.24528881480341,2023-10-05 13h03.04.727177 -0500,
encoding_list4.xlsx,recall_list4.xlsx,tall,,,,0,8,8,3,0,0,0,5,,,,,303.5300480830483,,,,,,,,,,,,,,,,,,303.5221373749664,305.5135716670193,306.51371141697746,306.49776695796754,306.4977866669651,306.51371141697746,307.51374620804563,307.49751925002784,,,,,,,,,,,,,,,,,,,002,001,2023-10-05_13h02.56.991,DRM_HieuLe,2023.2.1,60.24528881480341,2023-10-05 13h03.04.727177 -0500,
encoding_list4.xlsx,recall_list4.xlsx,sky,,,,0,8,8,3,0,1,1,0,,,,,307.51374620804563,,,,,,,,,,,,,,,,,,307.4979207919678,307.51374620804563,308.5141623329837,308.49767912505195,308.49769462505355,308.5141623329837,309.5141305420548,309.4974003749667,,,,,,,,,,,,,,,,,,,002,001,2023-10-05_13h02.56.991,DRM_HieuLe,2023.2.1,60.24528881480341,2023-10-05 13h03.04.727177 -0500,
encoding_list4.xlsx,recall_list4.xlsx,building,,,,0,8,8,3,0,2,2,3,,,,,309.5141305420548,,,,,,,,,,,,,,,,,,309.4978013749933,309.5141305420548,310.5138034169795,310.49803733301815,310.4980536670191,310.5138034169795,311.51379195798654,311.4981714170426,,,,,,,,,,,,,,,,,,,002,001,2023-10-05_13h02.56.991,DRM_HieuLe,2023.2.1,60.24528881480341,2023-10-05 13h03.04.727177 -0500,
encoding_list4.xlsx,recall_list4.xlsx,jump,,,,0,8,8,3,0,3,3,7,,,,,311.51379195798654,,,,,,,,,,,,,,,,,,311.4985564999515,311.51379195798654,312.5139526249841,312.4979508749675,312.49796979199164,312.5139526249841,313.51404783304315,313.498230749974,,,,,,,,,,,,,,,,,,,002,001,2023-10-05_13h02.56.991,DRM_HieuLe,2023.2.1,60.24528881480341,2023-10-05 13h03.04.727177 -0500,
encoding_list4.xlsx,recall_list4.xlsx,above,,,,0,8,8,3,0,4,4,2,,,,,313.51404783304315,,,,,,,,,,,,,,,,,,313.49861345801037,313.51404783304315,314.51433341705706,314.49773575004656,314.49775099998806,314.51433341705706,315.51452645799145,315.4978406250011,,,,,,,,,,,,,,,,,,,002,001,2023-10-05_13h02.56.991,DRM_HieuLe,2023.2.1,60.24528881480341,2023-10-05 13h03.04.727177 -0500,
encoding_list4.xlsx,recall_list4.xlsx,above,,,,0,8,8,3,0,5,5,4,,,,,315.51452645799145,,,,,,,,,,,,,,,,,,315.4982353330124,315.51452645799145,316.51450033299625,316.4976912919665,316.49771008302923,316.51450033299625,317.51405262504704,317.4977989170002,,,,,,,,,,,,,,,,,,,002,001,2023-10-05_13h02.56.991,DRM_HieuLe,2023.2.1,60.24528881480341,2023-10-05 13h03.04.727177 -0500,
encoding_list4.xlsx,recall_list4.xlsx,tower,,,,0,8,8,3,0,6,6,8,,,,,317.51405262504704,,,,,,,,,,,,,,,,,,317.4982297499664,317.51405262504704,318.5140032080235,318.4977725830395,318.49779137503356,318.5140032080235,319.51393083296716,319.4974901670357,,,,,,,,,,,,,,,,,,,002,001,2023-10-05_13h02.56.991,DRM_HieuLe,2023.2.1,60.24528881480341,2023-10-05 13h03.04.727177 -0500,
encoding_list4.xlsx,recall_list4.xlsx,dive,,,,0,8,8,3,0,7,7,1,,,,,319.51393083296716,,,,,,,,,,,,,,,,,,319.4978851249907,319.51393083296716,320.51392470800783,320.4977792920545,320.49779812502675,320.51392470800783,321.5143221250037,321.4980382079957,,,,,,,,,,,,,,,,,,,002,001,2023-10-05_13h02.56.991,DRM_HieuLe,2023.2.1,60.24528881480341,2023-10-05 13h03.04.727177 -0500,
encoding_list4.xlsx,recall_list4.xlsx,airplane,,,,0,8,8,3,0,8,8,6,,,,,321.5143221250037,,,,,,,,,,,,,,,,,,321.4984307079576,321.5143221250037,322.5142649170011,322.4978751670569,322.4978937499691,322.5142649170011,323.51386354200076,323.4980066670105,,,,,,,,,,,,,,,,,,,002,001,2023-10-05_13h02.56.991,DRM_HieuLe,2023.2.1,60.24528881480341,2023-10-05 13h03.04.727177 -0500,
encoding_list4.xlsx,recall_list4.xlsx,cliff,,,,0,8,8,3,0,9,9,9,,,,,323.51386354200076,,,,,,,,,,,,,,,,,,323.49839979200624,323.51386354200076,324.5145035419846,324.49847091699485,324.4984901250573,324.5145035419846,325.5142230830388,325.4984402919654,,,,,,,,,,,,,,,,,,,002,001,2023-10-05_13h02.56.991,DRM_HieuLe,2023.2.1,60.24528881480341,2023-10-05 13h03.04.727177 -0500,
encoding_list4.xlsx,recall_list4.xlsx,tall,old,f,0,0,8,8,3,,,,,0,0,0,5,328.5216538750101,,,,,,,,,,,,,,,,,,,,,,,,,,325.4985719999531,325.5142230830388,328.5216538750101,328.4982891669497,328.5129434999544,328.5216538750101,328.5216538750101,332.79878229205497,f,0,4.264463540981524,None,,,,,,,002,001,2023-10-05_13h02.56.991,DRM_HieuLe,2023.2.1,60.24528881480341,2023-10-05 13h03.04.727177 -0500,
encoding_list4.xlsx,recall_list4.xlsx,film,new,j,0,0,8,8,3,,,,,0,1,1,13,332.81414970802143,,,,,,,,,,,,,,,,,,,,,,,,,,,,,,332.79970904195216,332.81414970802143,332.81414970802143,332.9151955830166,j,0,0.09993212495464832,None,,,,,,,002,001,2023-10-05_13h02.56.991,DRM_HieuLe,2023.2.1,60.24528881480341,2023-10-05 13h03.04.727177 -0500,
encoding_list4.xlsx,recall_list4.xlsx,building,old,f,0,0,8,8,3,,,,,0,2,2,3,332.93067849997897,,,,,,,,,,,,,,,,,,,,,,,,,,,,,,332.91585541702807,332.93067849997897,332.93067849997897,333.0480107499752,f,0,0.11116825009230524,None,,,,,,,002,001,2023-10-05_13h02.56.991,DRM_HieuLe,2023.2.1,60.24528881480341,2023-10-05 13h03.04.727177 -0500,
encoding_list4.xlsx,recall_list4.xlsx,cliff,old,f,0,0,8,8,3,,,,,0,3,3,9,333.0641406669747,,,,,,,,,,,,,,,,,,,,,,,,,,,,,,333.04860262502916,333.0641406669747,333.0641406669747,333.16529045801144,j,0,0.09904574998654425,None,,,,,,,002,001,2023-10-05_13h02.56.991,DRM_HieuLe,2023.2.1,60.24528881480341,2023-10-05 13h03.04.727177 -0500,
encoding_list4.xlsx,recall_list4.xlsx,tag,new,j,0,0,8,8,3,,,,,0,4,4,11,333.1809691670351,,,,,,,,,,,,,,,,,,,,,,,,,,,,,,333.1658538329648,333.1809691670351,333.1809691670351,333.23209145804867,f,0,0.041350790997967124,None,,,,,,,002,001,2023-10-05_13h02.56.991,DRM_HieuLe,2023.2.1,60.24528881480341,2023-10-05 13h03.04.727177 -0500,
encoding_list4.xlsx,recall_list4.xlsx,dive,old,f,0,0,8,8,3,,,,,0,5,5,1,333.24716820800677,,,,,,,,,,,,,,,,,,,,,,,,,,,,,,333.2326027499512,333.24716820800677,333.24716820800677,333.3650517920032,j,0,0.1154715419979766,None,,,,,,,002,001,2023-10-05_13h02.56.991,DRM_HieuLe,2023.2.1,60.24528881480341,2023-10-05 13h03.04.727177 -0500,
encoding_list4.xlsx,recall_list4.xlsx,tower,old,f,0,0,8,8,3,,,,,0,6,6,8,333.3815094579477,,,,,,,,,,,,,,,,,,,,,,,,,,,,,,333.36563766701147,333.3815094579477,333.3815094579477,333.3988106669858,f,0,0.0016210409812629223,None,,,,,,,002,001,2023-10-05_13h02.56.991,DRM_HieuLe,2023.2.1,60.24528881480341,2023-10-05 13h03.04.727177 -0500,
encoding_list4.xlsx,recall_list4.xlsx,pop,new,j,0,0,8,8,3,,,,,0,7,7,19,333.41453258297406,,,,,,,,,,,,,,,,,,,,,,,,,,,,,,333.39930704201106,333.41453258297406,333.41453258297406,333.548690250027,f,0,0.13242120807990432,None,,,,,,,002,001,2023-10-05_13h02.56.991,DRM_HieuLe,2023.2.1,60.24528881480341,2023-10-05 13h03.04.727177 -0500,
encoding_list4.xlsx,recall_list4.xlsx,high,new,j,1,0,8,8,3,,,,,0,8,8,10,333.56486437504645,,,,,,,,,,,,,,,,,,,,,,,,,,,,,,333.54928370798007,333.56486437504645,333.56486437504645,333.76509329199325,f,0,0.18991954193916172,None,,,,,,,002,001,2023-10-05_13h02.56.991,DRM_HieuLe,2023.2.1,60.24528881480341,2023-10-05 13h03.04.727177 -0500,
encoding_list4.xlsx,recall_list4.xlsx,captain,new,j,0,0,8,8,3,,,,,0,9,9,12,333.7814713330008,,,,,,,,,,,,,,,,,,,,,,,,,,,,,,333.7656080420129,333.7814713330008,333.7814713330008,333.7983284579823,j,0,0.014709042035974562,None,,,,,,,002,001,2023-10-05_13h02.56.991,DRM_HieuLe,2023.2.1,60.24528881480341,2023-10-05 13h03.04.727177 -0500,
encoding_list4.xlsx,recall_list4.xlsx,hotel,new,j,0,0,8,8,3,,,,,0,10,10,16,333.8146822080016,,,,,,,,,,,,,,,,,,,,,,,,,,,,,,333.7987657079939,333.8146822080016,333.8146822080016,333.94829716696404,f,0,0.1311140829930082,None,,,,,,,002,001,2023-10-05_13h02.56.991,DRM_HieuLe,2023.2.1,60.24528881480341,2023-10-05 13h03.04.727177 -0500,
encoding_list4.xlsx,recall_list4.xlsx,shadow,new,j,0,0,8,8,3,,,,,0,11,11,18,333.9646012079902,,,,,,,,,,,,,,,,,,,,,,,,,,,,,,333.9487495420035,333.9646012079902,333.9646012079902,333.9816925829509,j,0,0.015307334018871188,None,,,,,,,002,001,2023-10-05_13h02.56.991,DRM_HieuLe,2023.2.1,60.24528881480341,2023-10-05 13h03.04.727177 -0500,
encoding_list4.xlsx,recall_list4.xlsx,watch,new,j,0,0,8,8,3,,,,,0,12,12,15,333.998291832977,,,,,,,,,,,,,,,,,,,,,,,,,,,,,,333.98212516703643,333.998291832977,333.998291832977,334.13181358296424,f,0,0.11849466699641198,None,,,,,,,002,001,2023-10-05_13h02.56.991,DRM_HieuLe,2023.2.1,60.24528881480341,2023-10-05 13h03.04.727177 -0500,
encoding_list4.xlsx,recall_list4.xlsx,sky,old,f,0,0,8,8,3,,,,,0,13,13,0,334.1473564580083,,,,,,,,,,,,,,,,,,,,,,,,,,,,,,334.132274625008,334.1473564580083,334.1473564580083,334.19813929195516,j,0,0.042967624962329865,None,,,,,,,002,001,2023-10-05_13h02.56.991,DRM_HieuLe,2023.2.1,60.24528881480341,2023-10-05 13h03.04.727177 -0500,
encoding_list4.xlsx,recall_list4.xlsx,author,new,j,0,0,8,8,3,,,,,0,14,14,14,334.2143230830552,,,,,,,,,,,,,,,,,,,,,,,,,,,,,,334.19859733304475,334.2143230830552,334.2143230830552,334.29846187494695,f,0,0.08165737497620285,None,,,,,,,002,001,2023-10-05_13h02.56.991,DRM_HieuLe,2023.2.1,60.24528881480341,2023-10-05 13h03.04.727177 -0500,
encoding_list4.xlsx,recall_list4.xlsx,jump,old,f,0,0,8,8,3,,,,,0,15,15,7,334.31422029202804,,,,,,,,,,,,,,,,,,,,,,,,,,,,,,334.29891845805105,334.31422029202804,334.31422029202804,334.3986740000546,j,0,0.07114950008690357,None,,,,,,,002,001,2023-10-05_13h02.56.991,DRM_HieuLe,2023.2.1,60.24528881480341,2023-10-05 13h03.04.727177 -0500,
encoding_list4.xlsx,recall_list4.xlsx,above,old,f,0,0,8,8,3,,,,,0,16,16,4,334.41446304204874,,,,,,,,,,,,,,,,,,,,,,,,,,,,,,334.39912133303005,334.41446304204874,334.41446304204874,334.49826183298137,f,0,0.07857416698243469,None,,,,,,,002,001,2023-10-05_13h02.56.991,DRM_HieuLe,2023.2.1,60.24528881480341,2023-10-05 13h03.04.727177 -0500,
encoding_list4.xlsx,recall_list4.xlsx,above,old,f,0,0,8,8,3,,,,,0,17,17,2,334.5141630830476,,,,,,,,,,,,,,,,,,,,,,,,,,,,,,334.4987126250053,334.5141630830476,334.5141630830476,334.59852704196237,j,0,0.08200320799369365,None,,,,,,,002,001,2023-10-05_13h02.56.991,DRM_HieuLe,2023.2.1,60.24528881480341,2023-10-05 13h03.04.727177 -0500,
encoding_list4.xlsx,recall_list4.xlsx,airplane,old,f,0,0,8,8,3,,,,,0,18,18,6,334.6142294170568,,,,,,,,,,,,,,,,,,,,,,,,,,,,,,334.598986166995,334.6142294170568,334.6142294170568,334.6816621250473,f,0,0.06438429199624807,None,,,,,,,002,001,2023-10-05_13h02.56.991,DRM_HieuLe,2023.2.1,60.24528881480341,2023-10-05 13h03.04.727177 -0500,
encoding_list4.xlsx,recall_list4.xlsx,human,new,j,0,0,8,8,3,,,,,0,19,19,17,334.6981686250074,,,,,,,,,,,,,,,,,,,,,,,,,,,,,,334.6821318330476,334.6981686250074,334.6981686250074,334.7983850419987,j,0,0.09941079199779779,None,,,,,,,002,001,2023-10-05_13h02.56.991,DRM_HieuLe,2023.2.1,60.24528881480341,2023-10-05 13h03.04.727177 -0500,
encoding_list4.xlsx,recall_list4.xlsx,,,,,0,8,8,3,,,,,,,,,,,,,,,,,,,,,,,,,,,,,,,,,,,,,,,,,,,,,,,334.79874966701027,334.7989940829575,,,,,002,001,2023-10-05_13h02.56.991,DRM_HieuLe,2023.2.1,60.24528881480341,2023-10-05 13h03.04.727177 -0500,
encoding_list10.xlsx,recall_list10.xlsx,jam,,,,0,9,9,9,0,0,0,6,,,,,334.8145194579847,,,,,,,,,,,,,,,,,,334.80654324998613,336.79767662496306,337.79771354200784,337.7812535420526,337.7812725000549,337.8142995419912,338.8145962919807,338.7982344169868,,,,,,,,,,,,,,,,,,,002,001,2023-10-05_13h02.56.991,DRM_HieuLe,2023.2.1,60.24528881480341,2023-10-05 13h03.04.727177 -0500,
encoding_list10.xlsx,recall_list10.xlsx,eat,,,,0,9,9,9,0,1,1,4,,,,,338.8145962919807,,,,,,,,,,,,,,,,,,338.7986233329866,338.8145962919807,339.8144176249625,339.79814724996686,339.7981630420545,339.8144176249625,340.81443949998356,340.79849687498063,,,,,,,,,,,,,,,,,,,002,001,2023-10-05_13h02.56.991,DRM_HieuLe,2023.2.1,60.24528881480341,2023-10-05 13h03.04.727177 -0500,
encoding_list10.xlsx,recall_list10.xlsx,toast,,,,0,9,9,9,0,2,2,3,,,,,340.81443949998356,,,,,,,,,,,,,,,,,,340.7988961250521,340.81443949998356,341.8143097499851,341.79845033294987,341.798469249974,341.8143097499851,342.81504720798694,342.7983302499633,,,,,,,,,,,,,,,,,,,002,001,2023-10-05_13h02.56.991,DRM_HieuLe,2023.2.1,60.24528881480341,2023-10-05 13h03.04.727177 -0500,
encoding_list10.xlsx,recall_list10.xlsx,sandwich,,,,0,9,9,9,0,3,3,1,,,,,342.81504720798694,,,,,,,,,,,,,,,,,,342.7987332920311,342.81504720798694,343.81435387500096,343.79828824999277,343.79830612498336,343.81435387500096,344.8146311669843,344.79842262505554,,,,,,,,,,,,,,,,,,,002,001,2023-10-05_13h02.56.991,DRM_HieuLe,2023.2.1,60.24528881480341,2023-10-05 13h03.04.727177 -0500,
encoding_list10.xlsx,recall_list10.xlsx,wine,,,,0,9,9,9,0,4,4,5,,,,,344.8146311669843,,,,,,,,,,,,,,,,,,344.7988211249467,344.8146311669843,345.8146398749668,345.7983682920458,345.79838366701733,345.8146398749668,346.8140845829621,346.7980905419681,,,,,,,,,,,,,,,,,,,002,001,2023-10-05_13h02.56.991,DRM_HieuLe,2023.2.1,60.24528881480341,2023-10-05 13h03.04.727177 -0500,
encoding_list10.xlsx,recall_list10.xlsx,slice,,,,0,9,9,9,0,5,5,9,,,,,346.8140845829621,,,,,,,,,,,,,,,,,,346.7984851669753,346.8140845829621,347.81472216697875,347.79838783305604,347.7984034169931,347.81472216697875,348.8145938749658,348.7981882500462,,,,,,,,,,,,,,,,,,,002,001,2023-10-05_13h02.56.991,DRM_HieuLe,2023.2.1,60.24528881480341,2023-10-05 13h03.04.727177 -0500,
